player_id,trial_id,choice,RT,difficulty_bin,distance,gender
0,0,1.0,2.1,1,234.97106225977058,Female
15,1,0.0,1.0333333333333334,0,126.58819989463086,Female
0,2,0.0,1.1333333333333333,1,246.16157870843807,Female
15,3,1.0,1.0,1,157.11012378427978,Female
0,4,0.0,0.6,0,125.56940700778262,Female
15,5,1.0,1.1666666666666667,0,119.02286990683405,Female
0,6,1.0,0.7666666666666667,1,146.54884086615067,Female
0,7,0.0,1.8666666666666667,1,200.8113662485205,Female
15,8,1.0,1.3,1,171.0703193317541,Female
0,9,0.0,0.43333333333333335,0,106.71759726013379,Female
15,10,1.0,0.9,0,101.49668282710248,Female
0,11,1.0,1.1333333333333333,1,164.6483107576433,Female
15,12,0.0,0.5666666666666667,0,99.77994301491258,Female
0,13,1.0,0.9,0,121.59978185377096,Female
15,14,0.0,0.9666666666666667,0,131.19137179915987,Female
0,15,1.0,0.7666666666666667,0,125.57702948883849,Female
15,16,1.0,0.6,0,108.64893248181504,Female
0,17,0.0,0.9666666666666667,0,64.94092351419806,Female
15,18,0.0,1.6333333333333333,1,170.46756659147852,Female
0,19,1.0,0.9,1,189.88256754496567,Female
15,20,1.0,1.3,0,123.23596856631232,Female
0,21,0.0,0.8,0,124.7533810394106,Female
15,22,1.0,1.8666666666666667,1,150.95598914895243,Female
0,23,1.0,0.7333333333333333,1,155.60508292630558,Female
15,24,1.0,0.9333333333333333,0,105.39959204494474,Female
0,25,0.0,0.9333333333333333,0,128.3022194815193,Female
15,26,1.0,1.8333333333333333,1,158.8842725935438,Female
15,27,1.0,1.0666666666666667,0,92.20025967680162,Female
0,28,1.0,0.8666666666666667,1,144.88314604984157,Female
15,29,1.0,0.7333333333333333,0,116.22070602725879,Female
0,30,1.0,1.9,1,230.33628929504616,Female
15,31,1.0,0.7333333333333333,0,108.0068111435841,Female
0,32,0.0,0.8,0,99.67058033286926,Female
15,33,0.0,1.4,1,172.61408150827512,Female
15,34,1.0,0.9666666666666667,1,135.68393838664403,Female
0,35,0.0,0.9,1,150.27540096095052,Female
15,36,0.0,1.0333333333333334,0,131.05491378981318,Female
0,37,1.0,1.2333333333333334,1,177.621817724405,Female
15,38,1.0,0.8666666666666667,0,85.88096322189942,Female
0,39,1.0,0.9,0,87.86292944502944,Female
15,40,1.0,1.0,0,126.50240136392097,Female
15,41,1.0,0.8333333333333334,0,80.29867304568504,Female
0,42,0.0,1.1333333333333333,1,165.5106774151609,Female
15,43,1.0,1.2,1,190.9391393532028,Female
0,44,1.0,0.8333333333333334,1,148.3205856585339,Female
15,45,1.0,1.0333333333333334,1,139.0963094038069,Female
0,46,0.0,0.9,0,107.93671075506411,Female
15,47,1.0,1.5666666666666667,1,176.97953001303242,Female
0,48,0.0,0.4666666666666667,0,103.20694948842892,Female
15,49,1.0,1.0333333333333334,0,129.4198257400144,Female
0,50,1.0,0.9666666666666667,1,214.62675764895295,Female
15,51,0.0,1.0,0,119.585334737189,Female
0,52,0.0,1.3,1,198.5483982239866,Female
15,53,1.0,1.1666666666666667,1,145.0645755844729,Female
0,54,0.0,0.6666666666666666,0,80.1163712492414,Female
15,55,0.0,1.2,1,165.20114207901997,Female
15,56,1.0,0.8,0,105.67496124956426,Female
0,57,0.0,0.43333333333333335,0,101.1458945963021,Female
15,58,1.0,0.8666666666666667,0,94.00309499284988,Female
0,59,1.0,1.2,1,222.67290016278682,Female
15,60,0.0,0.5666666666666667,0,112.10602205176627,Female
0,61,0.0,0.7,0,111.05735202824086,Female
15,62,0.0,1.5333333333333334,1,196.56845857445262,Female
15,63,1.0,0.9666666666666667,0,92.53505986284051,Female
0,64,0.0,0.8333333333333334,0,133.02036585653826,Female
15,65,1.0,1.7333333333333334,0,130.55171123052241,Female
0,66,0.0,0.5666666666666667,0,129.1772667276616,Female
0,67,0.0,1.8333333333333333,1,209.85227243058046,Female
15,68,0.0,1.3,1,197.98217564049023,Female
0,69,1.0,1.0333333333333334,1,193.756005259158,Female
15,70,1.0,0.9,1,153.97626742288762,Female
0,71,0.0,1.0,1,172.04613255533366,Female
15,72,1.0,1.4,1,171.52391072438283,Female
0,73,1.0,0.6666666666666666,1,133.73061184090395,Female
15,74,1.0,1.0,0,81.71251503455889,Female
0,75,0.0,0.9666666666666667,1,161.44363740473176,Female
15,76,0.0,1.0333333333333334,1,198.94428774220938,Female
0,77,1.0,0.8666666666666667,1,163.43959970650087,Female
15,78,0.0,1.3,1,180.91155424551235,Female
0,79,0.0,1.3,1,229.55089756102876,Female
15,80,1.0,1.1333333333333333,0,121.31234170147184,Female
0,81,0.0,0.6,1,162.98661857931864,Female
0,82,1.0,2.066666666666667,1,233.1519461098497,Female
15,83,1.0,0.9333333333333333,0,113.65606958756446,Female
0,84,1.0,0.8666666666666667,0,130.09958352602175,Female
15,85,1.0,0.8,0,98.79639699920278,Female
15,86,1.0,0.9,1,161.4216120047436,Female
0,87,0.0,0.43333333333333335,0,119.51971137682084,Female
15,88,0.0,0.9666666666666667,0,91.43579186469576,Female
0,89,1.0,1.0333333333333334,1,169.0031399197422,Female
15,90,0.0,1.0,1,168.0300680065319,Female
0,91,1.0,1.1333333333333333,1,177.9763312599016,Female
15,92,0.0,0.6666666666666666,0,113.03704805236949,Female
0,93,0.0,0.7666666666666667,0,72.5701250764774,Female
15,94,1.0,1.0666666666666667,1,159.69362639637885,Female
0,95,0.0,0.7,0,111.49934105262305,Female
15,96,1.0,1.2,1,155.1787073341753,Female
0,97,1.0,0.9666666666666667,0,96.51385516193827,Female
15,98,0.0,1.0666666666666667,1,134.09324061546266,Female
0,99,1.0,1.8666666666666667,1,206.82309693760737,Female
15,100,1.0,1.1333333333333333,1,160.71747866658185,Female
0,101,1.0,1.0333333333333334,1,152.8933444468606,Female
0,102,1.0,0.8333333333333334,1,176.87462766924253,Female
15,103,1.0,1.0333333333333334,0,117.93976588806254,Female
0,104,0.0,0.9,0,122.87432298450501,Female
15,105,1.0,1.0,1,156.8696180640452,Female
0,106,1.0,0.9,0,87.1457240662637,Female
15,107,1.0,0.9666666666666667,0,70.31187352673435,Female
0,108,1.0,1.0333333333333334,0,94.98037838821249,Female
15,109,0.0,1.1666666666666667,0,122.65423332758104,Female
0,110,0.0,1.5333333333333334,1,263.73234803973025,Female
15,111,0.0,1.0666666666666667,1,138.23983368105792,Female
0,112,0.0,0.8666666666666667,1,194.59890584949827,Female
15,113,1.0,1.2333333333333334,1,173.08949470132475,Female
0,114,1.0,1.9666666666666666,1,231.56036055658248,Female
15,115,1.0,0.8666666666666667,0,120.66626726051722,Female
0,116,1.0,1.1,0,119.41536897597915,Female
15,117,1.0,0.8666666666666667,0,123.6084212556523,Female
0,118,1.0,1.0333333333333334,0,70.34546729920584,Female
15,119,1.0,0.7666666666666667,0,68.34712637349288,Female
0,120,1.0,1.1666666666666667,1,159.04643587265764,Female
15,121,1.0,0.5666666666666667,1,156.97053159901742,Female
0,122,1.0,0.8,0,132.29262142858286,Female
15,123,1.0,0.9333333333333333,0,114.56120256339152,Female
0,124,1.0,0.8,1,165.46457291735533,Female
15,125,1.0,0.7,0,105.07535305414095,Female
0,126,1.0,0.8,1,134.3413626371536,Female
0,127,1.0,1.9333333333333333,1,200.66136787116375,Female
15,128,1.0,1.1,1,156.64080106590242,Female
0,129,0.0,1.0333333333333334,1,160.95367995837915,Female
15,130,1.0,1.4,1,152.29645132746808,Female
15,131,1.0,0.8666666666666667,0,104.95439983276196,Female
15,132,1.0,1.2333333333333334,0,104.28757571641624,Female
0,133,0.0,0.7333333333333333,0,125.63368369506375,Female
15,134,0.0,1.9666666666666666,1,174.5282772559984,Female
0,135,1.0,1.0666666666666667,1,200.44645487038878,Female
0,136,0.0,1.8666666666666667,1,252.16433791742958,Female
15,137,0.0,1.2666666666666666,1,176.05088442526747,Female
0,138,1.0,1.9,1,224.2946628704906,Female
15,139,0.0,0.6333333333333333,0,92.05854905445632,Female
0,140,1.0,0.6666666666666666,0,133.4251987397231,Female
15,141,1.0,1.1,1,158.40141246598034,Female
0,142,1.0,0.7,1,162.9382976941166,Female
15,143,0.0,0.6666666666666666,1,155.48987388302328,Female
0,144,1.0,1.1,1,221.7837576644519,Female
15,145,1.0,0.8,1,138.428054474663,Female
0,146,0.0,1.0,1,155.5538405031351,Female
15,147,0.0,1.8333333333333333,1,144.1456220595433,Female
0,148,0.0,1.2666666666666666,1,167.25689304340807,Female
15,149,1.0,1.3333333333333333,1,169.32613425853262,Female
0,150,0.0,0.6333333333333333,0,109.83753973316553,Female
15,151,1.0,1.0,0,64.02767938844018,Female
0,152,0.0,0.26666666666666666,0,100.36603637525086,Female
15,153,1.0,0.5,0,82.96600390096629,Female
0,154,0.0,0.5333333333333333,0,118.42039176422323,Female
15,155,1.0,1.0666666666666667,1,133.95588070898276,Female
0,156,0.0,0.5,0,95.19405098559126,Female
15,157,1.0,0.6666666666666666,0,96.23184707224752,Female
15,158,1.0,0.9333333333333333,0,64.86288568622297,Female
15,159,1.0,0.8333333333333334,0,90.30130735644066,Female
15,160,1.0,0.7666666666666667,0,93.03490499412207,Female
0,161,1.0,1.5666666666666667,1,153.77489000671056,Female
15,162,0.0,0.3333333333333333,0,111.45251875147765,Female
0,163,1.0,0.9333333333333333,1,133.9681399233551,Female
15,164,0.0,0.7333333333333333,0,118.92032520678971,Female
0,165,1.0,1.0666666666666667,0,130.561137558306,Female
15,166,0.0,0.6333333333333333,1,181.13882099915907,Female
0,167,1.0,1.1333333333333333,1,147.76447664634287,Female
15,168,1.0,1.0333333333333334,1,168.65033985416625,Female
0,169,1.0,0.8,1,155.30800266811107,Female
15,170,1.0,1.0,1,171.3498164506719,Female
0,171,0.0,1.2,1,148.5935346601553,Female
15,172,1.0,1.2333333333333334,1,287.7707634338705,Female
0,173,1.0,0.9333333333333333,1,137.5942916134586,Female
15,174,0.0,0.9666666666666667,1,146.76367849034042,Female
0,175,1.0,1.2,0,132.9954084465396,Female
15,176,0.0,0.8666666666666667,1,154.27844086414444,Female
0,177,1.0,1.0666666666666667,1,167.93629873706428,Female
15,178,1.0,1.2,1,173.7164811682327,Female
15,179,1.0,1.8,0,102.06685992465246,Female
0,180,1.0,1.1666666666666667,0,132.43168230514138,Female
15,181,0.0,0.7333333333333333,1,189.85101512780815,Female
15,182,1.0,0.4666666666666667,0,131.7483251270577,Female
0,183,1.0,0.9333333333333333,1,147.40160411453775,Female
15,184,1.0,0.5,0,126.41813698645814,Female
0,185,1.0,0.7,0,102.53046203249575,Female
15,186,0.0,1.1333333333333333,1,142.02844766341943,Female
0,187,1.0,1.1333333333333333,1,160.11357988492497,Female
15,188,1.0,0.8666666666666667,0,128.3068962482788,Female
0,189,1.0,0.9,1,162.11964486284208,Female
15,190,0.0,1.0333333333333334,1,163.97470376443889,Female
0,191,1.0,1.7,1,140.33460399431002,Female
15,192,0.0,0.8666666666666667,0,126.97797493897848,Female
0,193,0.0,1.1,1,171.07510261662048,Female
15,194,1.0,1.3,1,235.457656843952,Female
0,195,1.0,0.9,0,98.21769075336249,Female
15,196,1.0,0.9333333333333333,0,101.60693926913302,Female
15,197,1.0,0.7333333333333333,0,107.2788419337631,Female
0,198,1.0,0.9333333333333333,0,70.4558994374721,Female
15,199,0.0,0.8,0,35.73883811362932,Female
0,200,1.0,1.3,1,145.41683180394668,Female
15,201,1.0,0.9333333333333333,1,184.4759959169207,Female
0,202,0.0,0.8666666666666667,1,154.2975217712271,Female
15,203,1.0,1.8,1,142.46092330240108,Female
0,204,0.0,0.5666666666666667,0,126.8659626410857,Female
15,205,1.0,0.7,1,167.52419102809776,Female
15,206,1.0,0.9333333333333333,0,84.62146431514387,Female
0,207,1.0,1.0666666666666667,0,125.4974149990929,Female
15,208,0.0,0.8,1,150.49916973763376,Female
0,209,1.0,0.6666666666666666,1,142.76583089187218,Female
15,210,1.0,0.43333333333333335,0,110.53507924015743,Female
0,211,1.0,0.9,0,73.82862795187611,Female
15,212,1.0,1.0,0,115.95736405813891,Female
15,213,1.0,0.9,0,71.11280945238663,Female
0,214,0.0,1.4666666666666666,1,170.3019984231828,Female
15,215,0.0,0.4666666666666667,0,117.9397981610465,Female
0,216,1.0,0.8666666666666667,0,79.44447499476996,Female
15,217,0.0,0.43333333333333335,0,80.29812430017134,Female
0,218,1.0,0.6666666666666666,0,74.22760132798507,Female
15,219,1.0,0.9,0,103.06107325287742,Female
0,220,1.0,0.9666666666666667,1,158.07570524353505,Female
15,221,1.0,0.6666666666666666,0,123.4406213328726,Female
0,222,1.0,0.8333333333333334,0,111.50785759562984,Female
15,223,1.0,0.9666666666666667,0,88.67691398361097,Female
15,224,1.0,0.7666666666666667,0,80.02047970702279,Female
0,225,1.0,1.1333333333333333,1,156.0022906858877,Female
15,226,1.0,0.5333333333333333,0,119.83921942222085,Female
0,227,1.0,0.7666666666666667,0,127.3721916255532,Female
15,228,1.0,0.9666666666666667,0,92.13175161657445,Female
0,229,1.0,0.6333333333333333,0,93.66112073326745,Female
15,230,0.0,0.36666666666666664,0,77.50514333153318,Female
0,231,0.0,0.7666666666666667,0,91.17574204920679,Female
15,232,1.0,1.4666666666666666,1,216.77740090056977,Female
0,233,0.0,0.6,0,86.6594215131188,Female
15,234,1.0,0.8333333333333334,0,114.03390818457491,Female
0,235,0.0,0.8666666666666667,1,162.11964486284208,Female
15,236,1.0,1.7333333333333334,1,174.47455000850292,Female
0,237,0.0,0.6666666666666666,0,119.65274881556174,Female
15,238,1.0,0.5666666666666667,0,92.62998975597539,Female
0,239,1.0,0.7333333333333333,0,122.78896629096064,Female
15,240,0.0,0.8333333333333334,1,151.10113079921348,Female
0,241,1.0,1.3,1,144.68935956929636,Female
15,242,1.0,0.9333333333333333,1,144.46318793360325,Female
0,243,1.0,1.1333333333333333,1,138.46441266424006,Female
15,244,0.0,0.8,1,155.49996710651178,Female
0,245,1.0,1.7,1,167.6116518598359,Female
15,246,1.0,0.8,0,101.21580353179128,Female
0,247,1.0,0.8666666666666667,0,124.35194629292334,Female
15,248,0.0,0.7666666666666667,0,118.19730569936391,Female
0,249,1.0,0.8666666666666667,0,82.98075827497706,Female
15,250,1.0,0.8,0,40.908373983878874,Female
0,251,0.0,1.3666666666666667,1,138.4891553147768,Female
0,252,1.0,0.8333333333333334,0,74.0701896302474,Female
15,253,0.0,0.7666666666666667,0,61.53713625605553,Female
0,254,1.0,1.1666666666666667,1,144.0297794306979,Female
15,255,0.0,0.6333333333333333,1,187.28094961912487,Female
0,256,1.0,1.0,1,163.41836880878947,Female
15,257,1.0,0.8666666666666667,1,150.5428300559728,Female
0,258,1.0,1.3333333333333333,1,163.8810297032197,Female
15,259,0.0,0.8666666666666667,1,172.6831799931862,Female
0,260,1.0,1.3,1,139.22130250382054,Female
15,261,0.0,0.5666666666666667,1,206.62223290393268,Female
0,262,1.0,1.0,0,110.18725263318471,Female
15,263,1.0,0.8,0,85.42895866131266,Female
0,264,1.0,0.8666666666666667,0,126.76287653588551,Female
15,265,1.0,0.6666666666666666,1,173.07318574817398,Female
0,266,0.0,0.9,0,100.6793162077555,Female
15,267,1.0,1.0333333333333334,0,74.9432382820965,Female
0,268,0.0,1.0333333333333334,1,139.22130250382054,Female
15,269,1.0,0.9,1,235.7395944294685,Female
0,270,0.0,0.7,0,97.4556829711516,Female
15,271,1.0,0.7333333333333333,0,107.61506542100534,Female
0,272,1.0,1.2333333333333334,1,193.72688218371903,Female
15,273,1.0,0.4666666666666667,0,103.33955540246686,Female
0,274,1.0,0.9666666666666667,0,122.00063056068333,Female
15,275,1.0,0.8,1,160.45888061946707,Female
0,276,0.0,1.0333333333333334,1,141.90768265807097,Female
15,277,1.0,1.8,1,267.12417114317236,Female
0,278,1.0,0.6333333333333333,0,126.47783616274492,Female
15,279,0.0,0.9,0,125.50899954400668,Female
0,280,1.0,1.0666666666666667,1,178.23794314043957,Female
15,281,0.0,0.43333333333333335,0,104.70673439495313,Female
0,282,1.0,0.6666666666666666,1,137.41262926561282,Female
0,283,1.0,0.9333333333333333,0,103.20751698673928,Female
15,284,0.0,0.8333333333333334,0,127.58476123743468,Female
0,285,0.0,1.5,1,145.1600270825108,Female
15,286,1.0,0.7333333333333333,0,101.70343563764712,Female
0,287,1.0,1.3666666666666667,1,172.48572771577446,Female
15,288,1.0,0.8666666666666667,1,137.23562534051803,Female
0,289,0.0,0.7666666666666667,1,140.06670372180477,Female
15,290,1.0,1.0333333333333334,1,179.89799269508015,Female
0,291,1.0,0.5666666666666667,0,104.37440064972469,Female
15,292,0.0,0.5666666666666667,0,121.05695838615485,Female
0,293,1.0,0.9,0,118.15694179840013,Female
15,294,1.0,0.8666666666666667,0,107.2788419337631,Female
0,295,1.0,0.8333333333333334,0,128.4143130982666,Female
15,296,0.0,0.7666666666666667,0,84.01286976035713,Female
0,297,1.0,2.033333333333333,1,145.90330215553888,Female
15,298,1.0,0.7666666666666667,1,182.47640137598827,Female
0,299,0.0,1.1,1,140.74732062651478,Female
15,300,1.0,0.9333333333333333,1,171.90389844185705,Female
0,301,0.0,0.7,0,103.63925965454573,Female
15,302,1.0,0.8333333333333334,0,66.14030188323476,Female
0,303,1.0,1.0,1,167.8164240221173,Female
15,304,1.0,0.8,1,139.19619793183816,Female
15,305,1.0,0.7666666666666667,1,141.57941591850243,Female
0,306,0.0,0.9,1,134.85318366957637,Female
15,307,0.0,1.8666666666666667,1,188.04191689790787,Female
0,308,1.0,1.0333333333333334,1,155.9961001144584,Female
15,309,1.0,0.8666666666666667,0,107.33444681138079,Female
0,310,0.0,1.2333333333333334,1,164.9269898013817,Female
15,311,1.0,0.9333333333333333,1,138.66892562835457,Female
0,312,1.0,0.8,0,98.98968902606626,Female
15,313,1.0,0.4666666666666667,0,105.25988610578244,Female
0,314,0.0,0.43333333333333335,0,83.15777541500188,Female
15,315,1.0,0.8666666666666667,0,91.4254418916109,Female
0,316,1.0,0.9666666666666667,1,148.46339374244963,Female
15,317,0.0,0.9666666666666667,1,161.0855160926395,Female
0,318,1.0,1.0666666666666667,0,131.3350313049611,Female
15,319,0.0,0.5666666666666667,0,103.46735686031647,Female
0,320,1.0,0.9,0,94.36272164451977,Female
15,321,0.0,0.8666666666666667,0,48.44708402310097,Female
15,322,1.0,0.5333333333333333,0,81.44042315610298,Female
0,323,1.0,1.0333333333333334,1,157.85147260276082,Female
15,324,1.0,0.5333333333333333,0,112.20069697629705,Female
0,325,1.0,0.8333333333333334,0,102.16444731185523,Female
15,326,1.0,0.5333333333333333,0,106.36880854065488,Female
0,327,1.0,0.6333333333333333,0,105.47145346894428,Female
15,328,0.0,1.0333333333333334,0,71.54079333730533,Female
0,329,1.0,1.4333333333333333,0,130.14903506058295,Female
15,330,0.0,0.6,0,104.37293170799946,Female
0,331,1.0,1.0333333333333334,0,69.56317139269201,Female
15,332,0.0,1.0,0,62.738723058504874,Female
0,333,1.0,1.7,1,139.34964578323758,Female
15,334,0.0,0.6333333333333333,1,162.4558675352368,Female
0,335,1.0,0.9666666666666667,0,125.10448693332388,Female
15,336,0.0,0.8,1,198.1977559475235,Female
0,337,1.0,1.1,1,143.96660096871898,Female
15,338,0.0,0.6333333333333333,0,111.03922065543975,Female
0,339,1.0,1.0333333333333334,0,128.6374237959089,Female
15,340,1.0,0.9333333333333333,1,134.49312561404412,Female
0,341,1.0,1.1666666666666667,0,122.3149282677488,Female
15,342,1.0,0.5333333333333333,1,144.20703137390723,Female
0,343,1.0,0.9333333333333333,0,70.53894733338082,Female
15,344,0.0,0.8,0,63.09462247040763,Female
0,345,0.0,1.8666666666666667,1,178.22861000474043,Female
15,346,1.0,1.3,1,168.32260263422077,Female
0,347,0.0,0.6666666666666666,0,100.39189886504128,Female
15,348,1.0,0.9333333333333333,1,147.76271398261989,Female
0,349,0.0,1.0333333333333334,1,148.73173422945948,Female
15,350,1.0,0.9666666666666667,1,156.42677773047168,Female
0,351,0.0,0.7,0,127.79559338810478,Female
15,352,1.0,0.8,1,178.22095858048374,Female
0,353,1.0,1.3333333333333333,1,133.8484064336275,Female
15,354,1.0,0.8,0,117.67576568631853,Female
0,355,1.0,1.5333333333333334,1,151.6159277092859,Female
15,356,1.0,0.4666666666666667,1,172.83602119525352,Female
0,357,1.0,0.7666666666666667,0,125.28530773180867,Female
0,358,1.0,2.1333333333333333,1,155.76579124006898,Female
17,359,1.0,0.5666666666666667,0,106.46428259113189,Female
0,360,1.0,1.0666666666666667,0,95.35358058910253,Female
17,361,0.0,0.7666666666666667,0,55.36651040372636,Female
17,362,1.0,0.8666666666666667,0,84.29861764687973,Female
0,363,1.0,0.6666666666666666,0,127.94766241495832,Female
17,364,1.0,0.4666666666666667,1,160.61992206647994,Female
0,365,1.0,0.9333333333333333,0,122.78484247778255,Female
17,366,1.0,1.0,1,142.50910948914947,Female
0,367,1.0,1.1,1,180.3331550647503,Female
17,368,1.0,0.5,0,116.19851036641458,Female
0,369,0.0,1.0,1,145.4902551842317,Female
0,370,1.0,2.066666666666667,1,145.68918083567502,Female
17,371,0.0,0.7666666666666667,0,74.38595680524014,Female
0,372,1.0,1.0333333333333334,1,140.93163357195837,Female
17,373,0.0,0.5,0,105.80845702800703,Female
0,374,1.0,0.8,1,148.1014780027336,Female
17,375,0.0,1.0333333333333334,1,134.44993130422063,Female
0,376,1.0,1.8333333333333333,1,159.15150563622953,Female
17,377,1.0,0.6666666666666666,1,141.43952919444226,Female
0,378,0.0,1.2333333333333334,1,142.66546689163624,Female
17,379,1.0,1.5,1,224.23347985577288,Female
0,380,1.0,1.0666666666666667,1,136.05245721259038,Female
17,381,1.0,0.8666666666666667,0,131.54949250153922,Female
17,382,1.0,0.6,0,133.38703764723883,Female
0,383,0.0,1.0333333333333334,1,147.1477110996546,Female
17,384,1.0,0.5666666666666667,0,126.23019726259294,Female
0,385,0.0,0.8666666666666667,0,123.78612331444923,Female
17,386,1.0,1.5666666666666667,1,183.00025037240545,Female
0,387,0.0,2.1666666666666665,1,196.16728240507928,Female
17,388,0.0,1.1666666666666667,1,236.30821317637896,Female
0,389,1.0,0.8,1,148.7779785905251,Female
17,390,1.0,0.8,1,224.12156105008523,Female
0,391,1.0,1.0666666666666667,0,116.50785441281656,Female
17,392,0.0,0.9333333333333333,0,123.67224234830219,Female
0,393,1.0,1.4333333333333333,1,181.26963989030352,Female
17,394,1.0,0.9,0,129.1980621122515,Female
0,395,1.0,2.466666666666667,1,154.6341051168053,Female
17,396,1.0,0.36666666666666664,0,108.71098650228039,Female
0,397,0.0,0.4666666666666667,0,96.11259603553994,Female
17,398,1.0,0.5666666666666667,0,61.14522791059016,Female
0,399,0.0,1.0,1,159.89853335870865,Female
17,400,0.0,1.2,1,180.5350912955364,Female
0,401,0.0,1.1666666666666667,0,122.9100460396293,Female
17,402,1.0,1.3,1,205.33133396542743,Female
0,403,0.0,0.9,0,112.36597551893749,Female
0,404,1.0,2.1,1,180.58872581708292,Female
17,405,0.0,0.7666666666666667,0,130.7648246517223,Female
0,406,1.0,0.9333333333333333,1,146.643650826966,Female
17,407,1.0,0.8666666666666667,1,140.5671163611849,Female
0,408,0.0,1.1,1,149.8657341583005,Female
17,409,1.0,1.6666666666666667,1,173.4014911966975,Female
0,410,1.0,2.1666666666666665,1,142.08375661185434,Female
17,411,0.0,0.8,0,115.19375171208068,Female
0,412,1.0,0.9666666666666667,1,153.86402580828374,Female
17,413,1.0,0.6333333333333333,0,100.39593296050347,Female
0,414,1.0,0.8666666666666667,0,104.95439983276196,Female
17,415,1.0,0.9666666666666667,0,50.914334743033955,Female
17,416,1.0,0.8333333333333334,0,80.10741064907494,Female
17,417,1.0,1.0,1,163.60022983664726,Female
0,418,1.0,1.0666666666666667,0,109.20248101790936,Female
0,419,0.0,2.2333333333333334,1,168.07850367762714,Female
17,420,1.0,1.0666666666666667,1,214.48720111540698,Female
0,421,1.0,0.9666666666666667,0,113.5866201477666,Female
17,422,1.0,0.7666666666666667,0,53.23069918082474,Female
0,423,0.0,1.0666666666666667,1,171.5918693244639,Female
17,424,0.0,1.0,1,206.4745613607706,Female
0,425,1.0,0.8333333333333334,1,179.54441038062342,Female
17,426,0.0,0.6,0,113.02404000013962,Female
0,427,1.0,0.9,0,120.19886687740077,Female
17,428,0.0,1.1,1,242.75316711056195,Female
0,429,1.0,0.7666666666666667,1,139.08054794895753,Female
17,430,0.0,0.9666666666666667,1,151.5763108134741,Female
0,431,1.0,0.8,0,131.99187367242263,Female
0,432,1.0,2.1333333333333333,1,133.67004099735223,Female
17,433,0.0,0.4666666666666667,1,136.3479151507454,Female
0,434,0.0,0.9333333333333333,1,143.4954718967334,Female
17,435,0.0,1.1666666666666667,1,166.44773247711143,Female
0,436,1.0,1.0333333333333334,1,163.67586043832387,Female
17,437,1.0,0.9666666666666667,1,159.68898559238883,Female
0,438,1.0,0.8666666666666667,1,135.61046268800507,Female
0,439,0.0,2.066666666666667,1,195.59034464129516,Female
17,440,1.0,1.1666666666666667,1,221.17460984089917,Female
0,441,0.0,0.6666666666666666,0,87.03361473395826,Female
17,442,1.0,0.6666666666666666,0,64.32860810113303,Female
0,443,0.0,0.8,0,118.80403470599965,Female
17,444,0.0,1.1333333333333333,1,214.27387150378843,Female
0,445,1.0,1.2666666666666666,1,165.26589294578338,Female
17,446,1.0,0.8333333333333334,1,247.16233076288765,Female
0,447,1.0,1.0,0,63.677124480738016,Female
17,448,1.0,0.8666666666666667,0,123.10465902277214,Female
0,449,1.0,1.2666666666666666,1,194.77598488503182,Female
17,450,1.0,1.0666666666666667,1,177.4707786687504,Female
0,451,1.0,0.9666666666666667,0,109.5667251527929,Female
17,452,0.0,0.9,1,142.59847972891637,Female
0,453,1.0,1.7333333333333334,1,157.49901576901226,Female
0,454,1.0,1.1333333333333333,1,145.4082162726473,Female
17,455,1.0,0.8666666666666667,0,128.87637678835512,Female
17,456,1.0,0.8333333333333334,0,84.23011510853256,Female
0,457,0.0,0.9666666666666667,0,122.40244055467136,Female
17,458,1.0,1.5666666666666667,1,265.5338408962289,Female
0,459,0.0,0.6,0,91.03808147138884,Female
17,460,0.0,0.8333333333333334,1,141.7214344438779,Female
0,461,1.0,1.1666666666666667,1,154.7333898267299,Female
17,462,1.0,0.6333333333333333,0,109.99027776012448,Female
0,463,1.0,0.8,0,108.56874675535946,Female
17,464,0.0,0.8666666666666667,0,96.53926548618902,Female
0,465,1.0,1.3666666666666667,1,200.93946268624842,Female
17,466,1.0,0.9,0,99.00720080488284,Female
0,467,0.0,1.0,0,118.12819828517723,Female
17,468,1.0,1.3,1,238.86089878602527,Female
17,469,1.0,0.9333333333333333,0,73.86704597375375,Female
0,470,1.0,1.0333333333333334,1,160.73536617444628,Female
17,471,0.0,0.5666666666666667,1,139.59729245623495,Female
0,472,1.0,0.9,0,131.19576321395846,Female
17,473,1.0,1.1,1,137.60999313058883,Female
0,474,1.0,0.8666666666666667,1,145.03471972288477,Female
17,475,0.0,0.6666666666666666,0,110.35853790543564,Female
0,476,1.0,1.1666666666666667,1,186.96863369891463,Female
17,477,0.0,1.0,1,153.33082406102653,Female
0,478,1.0,0.9,1,164.2452518407191,Female
17,479,1.0,1.0,1,138.12693395542343,Female
17,480,1.0,0.6333333333333333,0,122.11657564795965,Female
0,481,1.0,0.9333333333333333,0,122.66168090381206,Female
17,482,1.0,0.9333333333333333,1,214.23799442895327,Female
0,483,0.0,0.7666666666666667,1,171.996161325416,Female
17,484,1.0,0.7,1,159.23585164088334,Female
0,485,1.0,0.8666666666666667,1,174.77149315283023,Female
17,486,0.0,0.6,1,166.2975849437533,Female
0,487,1.0,0.6333333333333333,1,154.0417948562313,Female
17,488,0.0,0.6666666666666666,0,118.73835292921196,Female
0,489,1.0,0.5666666666666667,0,98.56142738421238,Female
17,490,1.0,0.5333333333333333,1,182.21516657669332,Female
17,491,1.0,0.9666666666666667,0,106.85496972965981,Female
0,492,1.0,0.8666666666666667,0,129.80894286759795,Female
17,493,1.0,0.9,1,160.64485326431662,Female
0,494,0.0,0.9333333333333333,1,181.95830951506022,Female
17,495,0.0,1.1,1,187.96004164211325,Female
0,496,1.0,1.3666666666666667,1,168.3457264675737,Female
17,497,0.0,0.5666666666666667,0,103.68696696948929,Female
0,498,1.0,2.1,1,156.96651993853644,Female
17,499,1.0,0.8333333333333334,1,161.78186458261544,Female
0,500,1.0,0.9333333333333333,1,169.94951961863757,Female
17,501,1.0,0.6,0,105.49427987818828,Female
17,502,1.0,0.9333333333333333,0,105.70533603667698,Female
0,503,0.0,0.8666666666666667,0,113.65628419262927,Female
17,504,1.0,1.2333333333333334,1,173.52732770002342,Female
0,505,0.0,0.6,0,122.03195407647863,Female
17,506,1.0,0.8333333333333334,0,124.28639127287923,Female
0,507,1.0,0.8,0,106.5328490486211,Female
17,508,1.0,0.8,0,102.61112971547485,Female
0,509,0.0,1.3,1,179.53786023541448,Female
17,510,1.0,1.1,1,211.83478727240964,Female
0,511,0.0,0.8,0,117.25170207990764,Female
17,512,1.0,0.8666666666666667,1,147.95273220447976,Female
0,513,0.0,0.5666666666666667,0,116.60683985113221,Female
17,514,1.0,0.9666666666666667,0,124.45577513447746,Female
17,515,1.0,0.9333333333333333,0,117.71658014244832,Female
0,516,0.0,0.4,0,126.33936779605563,Female
0,517,0.0,2.033333333333333,1,178.70395920623153,Female
17,518,0.0,0.9333333333333333,1,154.83859273209583,Female
0,519,1.0,1.0666666666666667,1,135.6295423441869,Female
17,520,1.0,0.5333333333333333,1,170.22717479367134,Female
0,521,1.0,1.2,0,123.55919001104056,Female
17,522,1.0,0.9,1,158.70923370449844,Female
0,523,1.0,1.0333333333333334,1,133.72614145670877,Female
17,524,1.0,0.7333333333333333,0,116.5237049399277,Female
0,525,1.0,0.8333333333333334,1,144.1061046616791,Female
17,526,1.0,1.3666666666666667,1,274.03582816332056,Female
0,527,1.0,0.8666666666666667,0,116.01636371882844,Female
17,528,0.0,0.8666666666666667,1,161.65241254105953,Female
17,529,1.0,0.8333333333333334,0,118.16641798972658,Female
0,530,1.0,0.7333333333333333,0,131.86247624230305,Female
0,531,1.0,0.7,0,114.28721816361848,Female
17,532,1.0,1.0666666666666667,1,145.87322642823375,Female
0,533,0.0,0.5666666666666667,0,131.13350098820914,Female
17,534,1.0,1.0333333333333334,1,159.78048579737532,Female
0,535,1.0,0.6333333333333333,1,135.64212146385427,Female
17,536,0.0,0.9666666666666667,1,163.92249851422332,Female
0,537,1.0,1.7,1,136.59488865222204,Female
17,538,0.0,0.5666666666666667,0,103.71663801597906,Female
0,539,1.0,0.9,1,135.21838508827517,Female
17,540,1.0,0.7333333333333333,0,75.74569348306501,Female
0,541,1.0,1.2666666666666666,0,122.9100460396293,Female
17,542,0.0,0.5666666666666667,1,166.66901332164147,Female
0,543,1.0,1.0333333333333334,1,152.23542106380677,Female
17,544,1.0,1.0333333333333334,1,169.39328990520872,Female
0,545,1.0,1.1666666666666667,1,166.10197206696995,Female
17,546,0.0,0.6666666666666666,1,208.39048868114716,Female
0,547,1.0,0.8,0,121.28806002464506,Female
17,548,1.0,1.0,0,34.36322704623981,Female
17,549,1.0,0.8,0,126.94673124562145,Female
0,550,1.0,0.9,1,140.19106268531976,Female
17,551,1.0,0.6333333333333333,0,100.09585501093125,Female
0,552,1.0,0.6,0,90.92962603763553,Female
17,553,0.0,0.5,0,111.47202938844596,Female
0,554,0.0,0.7,0,120.26347487574375,Female
17,555,1.0,1.3333333333333333,1,198.24057409363604,Female
0,556,0.0,0.4666666666666667,0,90.69998165753945,Female
17,557,1.0,0.9,1,134.93958193994337,Female
0,558,1.0,0.7,0,116.38777030149721,Female
17,559,1.0,1.0,1,152.64929827399448,Female
17,560,0.0,1.1333333333333333,1,168.08881689611422,Female
0,561,0.0,1.2666666666666666,1,189.49998438339813,Female
17,562,1.0,1.1333333333333333,1,213.1414568526157,Female
0,563,0.0,0.8333333333333334,1,143.26485104929893,Female
17,564,0.0,1.4333333333333333,1,244.34599472098634,Female
0,565,0.0,1.0,1,146.05609981037452,Female
17,566,0.0,1.1,1,242.72561523785424,Female
17,567,1.0,1.2333333333333334,1,149.15385904904124,Female
0,568,0.0,0.9666666666666667,1,156.84576297981332,Female
17,569,0.0,1.5333333333333334,1,259.03128003738834,Female
0,570,0.0,0.9666666666666667,1,143.96660096871898,Female
17,571,0.0,1.1333333333333333,1,239.85934671997802,Female
0,572,1.0,1.2333333333333334,1,156.2859798771891,Female
17,573,0.0,0.6333333333333333,0,129.76814569807436,Female
0,574,0.0,1.1666666666666667,0,120.36704916988194,Female
17,575,1.0,1.5666666666666667,1,269.6757688912453,Female
0,576,0.0,0.7,0,105.04295476964225,Female
17,577,1.0,1.0,0,73.01733773530934,Female
0,578,0.0,0.8666666666666667,0,61.61442220921376,Female
17,579,1.0,1.9333333333333333,1,203.3336677266559,Female
0,580,0.0,0.8666666666666667,1,155.82539855864044,Female
17,581,0.0,0.8,1,166.2931496929729,Female
0,582,0.0,1.1666666666666667,1,158.46338394164297,Female
17,583,0.0,0.9666666666666667,1,153.25217698140966,Female
0,584,1.0,1.0666666666666667,1,181.12182176263943,Female
17,585,1.0,0.9,1,192.2150350463897,Female
0,586,1.0,0.9333333333333333,0,129.33146355693998,Female
17,587,1.0,1.0666666666666667,1,149.26274474701174,Female
17,588,1.0,0.8666666666666667,0,103.94363188576145,Female
0,589,1.0,0.8333333333333334,0,112.6969954544397,Female
17,590,1.0,0.8,1,155.6633486734282,Female
0,591,1.0,0.5333333333333333,0,92.52360920772698,Female
17,592,1.0,0.6333333333333333,0,125.58536328850244,Female
0,593,0.0,1.0666666666666667,1,157.51646937172137,Female
17,594,1.0,1.3333333333333333,1,161.26441014758282,Female
0,595,1.0,0.8666666666666667,0,119.04009946840574,Female
17,596,1.0,0.8666666666666667,0,95.00766238473949,Female
0,597,1.0,0.9,0,116.6408184482294,Female
17,598,1.0,0.6,0,125.78787709682044,Female
0,599,0.0,1.0666666666666667,0,132.32569522473818,Female
17,600,1.0,1.8,0,126.97609791889751,Female
0,601,0.0,0.5,1,154.22915270442587,Female
0,602,1.0,0.9333333333333333,0,114.47897295665773,Female
17,603,1.0,1.0666666666666667,0,85.87635311024208,Female
17,604,1.0,0.8,0,75.63457783483497,Female
0,605,1.0,1.3333333333333333,1,260.157292437148,Female
17,606,1.0,0.5666666666666667,0,102.47082922328379,Female
0,607,1.0,1.9,1,194.7784649798603,Female
17,608,0.0,0.6666666666666666,0,94.4649110834731,Female
0,609,0.0,0.9,1,160.38574315272191,Female
17,610,0.0,1.0666666666666667,0,123.79219525945807,Female
0,611,1.0,1.3333333333333333,1,272.6478578056345,Female
17,612,1.0,0.7333333333333333,0,107.47115006972797,Female
0,613,1.0,1.0666666666666667,1,169.6059107616672,Female
0,614,0.0,1.6666666666666667,1,248.45761060694917,Female
17,615,0.0,1.0333333333333334,0,132.48404343219963,Female
0,616,0.0,0.4666666666666667,1,179.12553619695962,Female
17,617,1.0,0.8,0,89.51388275841771,Female
0,618,0.0,0.9,0,83.6847980761019,Female
17,619,1.0,2.066666666666667,1,142.68825210326074,Female
0,620,0.0,0.6666666666666666,0,104.37755615317757,Female
17,621,1.0,0.5666666666666667,0,85.45345868740824,Female
0,622,0.0,2.1,1,223.47344200491835,Female
17,623,0.0,1.2666666666666666,1,152.64081068925177,Female
0,624,0.0,1.2333333333333334,1,276.01959145367545,Female
17,625,1.0,0.9666666666666667,1,156.48803060684273,Female
17,626,1.0,0.9,0,126.26808146925944,Female
0,627,0.0,0.8333333333333334,1,146.43125027159095,Female
17,628,1.0,1.3,1,173.46337135920922,Female
0,629,0.0,0.6,0,103.74287952949744,Female
17,630,1.0,0.8333333333333334,0,87.61003686729138,Female
0,631,1.0,0.8333333333333334,0,119.43970130607677,Female
17,632,1.0,0.9333333333333333,0,132.13717762676754,Female
0,633,0.0,0.8666666666666667,0,93.99285354593975,Female
17,634,0.0,1.4666666666666666,1,143.9677745119769,Female
0,635,0.0,0.9,1,139.48868648035887,Female
17,636,1.0,1.5666666666666667,1,165.99391394853944,Female
0,637,0.0,0.6,1,159.4404546168658,Female
17,638,1.0,0.9333333333333333,1,138.25852070753655,Female
0,639,1.0,1.0,1,150.08905751553917,Female
17,640,1.0,0.9666666666666667,1,160.1044292270061,Female
0,641,1.0,1.0,0,99.95017020068553,Female
17,642,0.0,0.23333333333333334,0,96.39821438314203,Female
0,643,1.0,2.1333333333333333,1,220.4364474861933,Female
17,644,1.0,0.7,0,103.32269520133892,Female
0,645,0.0,1.0,1,157.62023350667246,Female
17,646,1.0,1.5,1,180.10798983106798,Female
0,647,0.0,0.5,0,100.41085702757604,Female
17,648,1.0,1.0,0,124.0783096982032,Female
0,649,1.0,0.9,1,134.74811042445214,Female
17,650,1.0,0.9,1,168.8416908795776,Female
0,651,1.0,1.1666666666666667,1,162.3461389194539,Female
0,652,0.0,1.0,1,139.94937987052464,Female
17,653,1.0,1.1333333333333333,1,144.31966310760285,Female
0,654,0.0,0.6,0,102.27407482535303,Female
17,655,1.0,1.2,0,128.02905263075965,Female
0,656,0.0,0.9,0,39.32584166173905,Female
17,657,1.0,1.6,0,129.31739388881613,Female
0,658,0.0,0.6,0,93.67940222932954,Female
17,659,1.0,0.8666666666666667,1,136.01912957585662,Female
17,660,1.0,0.8333333333333334,0,122.23080991386217,Female
0,661,1.0,1.3333333333333333,1,251.15726224721755,Female
17,662,1.0,0.7666666666666667,0,123.15541686884082,Female
0,663,0.0,0.5666666666666667,0,120.01352838021573,Female
0,664,0.0,2.1,1,186.68841702350323,Female
17,665,1.0,1.2,1,170.4334318160649,Female
0,666,0.0,0.5,0,101.51026508199618,Female
17,667,1.0,0.9333333333333333,0,131.78300443513217,Female
0,668,1.0,0.8,1,161.6643171315829,Female
17,669,0.0,1.0666666666666667,1,152.38889143370548,Female
0,670,1.0,2.033333333333333,1,302.18496101659224,Female
17,671,0.0,1.2333333333333334,1,152.69079101871029,Female
0,672,1.0,1.3,1,204.63115566211638,Female
17,673,1.0,1.0333333333333334,1,151.67129159891326,Female
0,674,0.0,0.9666666666666667,0,126.7379954553313,Female
17,675,1.0,1.3666666666666667,1,146.04625705431252,Female
0,676,1.0,0.7666666666666667,1,150.1733105488641,Female
17,677,1.0,1.1666666666666667,0,129.94593202704098,Female
0,678,0.0,0.8666666666666667,1,150.13693434562686,Female
17,679,0.0,1.3666666666666667,1,170.57510135484432,Female
0,680,0.0,1.0333333333333334,0,117.12206860909696,Female
17,681,0.0,1.1666666666666667,1,164.3458231675811,Female
0,682,1.0,1.1666666666666667,1,202.68830841817038,Female
17,683,1.0,0.6333333333333333,1,146.30414763244966,Female
17,684,1.0,0.9,0,72.38210980780516,Female
0,685,1.0,1.2333333333333334,1,227.37528346518897,Female
17,686,1.0,0.9333333333333333,0,103.4332011151213,Female
0,687,0.0,0.7666666666666667,1,142.95994605047915,Female
0,688,1.0,2.2666666666666666,1,293.1575103544944,Female
17,689,1.0,0.6,0,115.93216013572756,Female
0,690,0.0,0.9333333333333333,1,133.9099875935755,Female
17,691,1.0,1.5,1,134.40958128238944,Female
0,692,0.0,0.6,1,162.01301565994595,Female
17,693,1.0,0.7333333333333333,1,139.67372335017737,Female
0,694,0.0,1.0666666666666667,1,194.8858572435004,Female
17,695,1.0,1.0333333333333334,1,150.22468876931123,Female
0,696,0.0,0.5,0,114.40442018677611,Female
17,697,1.0,0.8666666666666667,0,115.45749079593122,Female
17,698,1.0,0.7333333333333333,0,132.3855182497065,Female
0,699,1.0,1.1333333333333333,1,229.90741383572444,Female
17,700,0.0,0.6,0,106.66652919613173,Female
0,701,0.0,0.9333333333333333,1,139.2330882055767,Female
17,702,1.0,1.1666666666666667,1,185.89255665825843,Female
0,703,0.0,0.6,1,154.84748219246632,Female
17,704,1.0,1.1333333333333333,1,140.93757518662292,Female
0,705,1.0,0.9333333333333333,1,179.32600402820114,Female
17,706,1.0,0.8333333333333334,1,139.0963094038069,Female
0,707,1.0,0.9333333333333333,0,113.74106198943704,Female
17,708,1.0,0.6333333333333333,1,154.46014902828168,Female
0,709,0.0,0.6666666666666666,0,94.80448394458337,Female
0,710,1.0,0.8,0,98.23959900337917,Female
17,711,1.0,1.1666666666666667,0,116.82430474546504,Female
0,712,1.0,1.0666666666666667,1,183.29455863481246,Female
17,713,1.0,0.8,0,107.45291075141945,Female
0,714,1.0,0.9333333333333333,1,134.92745747724277,Female
17,715,1.0,0.7333333333333333,1,133.8484064336275,Female
0,716,0.0,1.2,1,145.74168280830517,Female
17,717,1.0,1.0,1,169.5990238394813,Female
0,718,0.0,0.6333333333333333,1,148.69721289947023,Female
17,719,1.0,1.0,0,120.79411932243502,Female
0,720,0.0,1.3,1,230.93699666609172,Female
17,721,0.0,1.1,1,160.12619047428953,Female
0,722,1.0,1.2333333333333334,1,238.41456574687035,Female
17,723,1.0,0.9,1,159.31737616218507,Female
0,724,0.0,0.9666666666666667,1,140.54012534751996,Female
17,725,1.0,2.0,1,144.82632938739047,Female
17,726,1.0,0.8,0,117.19073729395792,Female
0,727,0.0,1.0,1,243.0568491779647,Female
17,728,1.0,0.9666666666666667,1,166.27763075597912,Female
17,729,1.0,0.8,0,110.20014000555166,Female
0,730,1.0,0.9333333333333333,1,138.8739848301998,Female
17,731,1.0,1.0,1,137.40470908447557,Female
7,732,1.0,0.6,0,120.63668668545729,Male
1,733,0.0,0.6,0,91.8537152059892,Male
7,734,1.0,0.7333333333333333,1,183.38831115194554,Male
1,735,0.0,0.3333333333333333,0,62.418874948811194,Male
7,736,1.0,0.7333333333333333,1,159.17691717254797,Male
1,737,0.0,0.6666666666666666,1,168.30617537862557,Male
7,738,1.0,0.8333333333333334,1,218.05305596174446,Male
1,739,0.0,0.43333333333333335,0,102.43364441147263,Male
7,740,1.0,0.6333333333333333,0,126.75337978210429,Male
1,741,1.0,0.7,0,116.81749525558111,Male
1,742,1.0,0.4666666666666667,0,76.61359135387826,Male
7,743,0.0,0.5,1,152.82673600730615,Male
1,744,1.0,0.8333333333333334,0,119.5159955303547,Male
7,745,0.0,0.36666666666666664,1,168.97807637797618,Male
1,746,1.0,0.9,1,166.23738623200813,Male
7,747,1.0,0.5666666666666667,1,149.5391161871339,Male
1,748,1.0,0.4666666666666667,0,60.69740382027573,Male
7,749,0.0,0.7666666666666667,0,106.74882656363465,Male
1,750,1.0,1.4333333333333333,1,232.06005482918334,Male
7,751,0.0,0.6333333333333333,1,171.26434173218524,Male
1,752,1.0,0.9333333333333333,0,119.80084429874525,Male
7,753,0.0,0.43333333333333335,1,169.73285258318836,Male
1,754,1.0,0.7,0,46.64708617977748,Male
7,755,1.0,0.7,1,155.48735275412912,Male
1,756,1.0,0.7,0,98.44106852608611,Male
1,757,1.0,0.5666666666666667,0,56.91736681796121,Male
7,758,0.0,0.3,1,135.0313168611055,Male
1,759,1.0,0.5,0,52.11408880791731,Male
1,760,1.0,0.6,0,77.81451624333761,Male
7,761,0.0,0.7,0,131.46558366274633,Male
1,762,1.0,1.0666666666666667,1,205.81699810651082,Male
7,763,1.0,0.6333333333333333,1,171.71066836960185,Male
1,764,1.0,0.7666666666666667,1,142.5700897365621,Male
7,765,1.0,0.6333333333333333,0,96.50521232051351,Male
1,766,1.0,0.4,0,58.44748723916356,Male
1,767,1.0,0.5333333333333333,0,123.5871609758806,Male
7,768,1.0,0.7666666666666667,0,127.42332344636549,Male
1,769,1.0,0.7666666666666667,1,155.36763125348534,Male
7,770,0.0,0.26666666666666666,1,168.55760449585244,Male
1,771,1.0,0.8,0,77.92662967955657,Male
1,772,1.0,0.6333333333333333,0,129.66431325015472,Male
7,773,0.0,0.8,1,173.52350665678438,Male
1,774,1.0,1.1666666666666667,1,167.85566660987007,Male
7,775,0.0,0.36666666666666664,1,163.38134707798164,Male
1,776,0.0,0.8,1,140.20912275289334,Male
7,777,1.0,1.0333333333333334,1,200.4234481405529,Male
7,778,0.0,0.6666666666666666,1,137.13150212150202,Male
1,779,1.0,1.1,1,244.81135944887689,Male
7,780,1.0,0.7666666666666667,1,178.90218484196797,Male
1,781,0.0,0.7333333333333333,0,46.49792083518145,Male
7,782,1.0,1.0333333333333334,1,181.77247722945037,Male
1,783,0.0,0.4666666666666667,0,122.79556451517038,Male
7,784,1.0,0.7666666666666667,1,204.38857704033126,Male
7,785,1.0,0.6,0,114.66037081515904,Male
1,786,1.0,0.43333333333333335,0,47.48302232046802,Male
7,787,1.0,0.43333333333333335,1,142.73229227333425,Male
1,788,0.0,0.6333333333333333,0,101.13581423597164,Male
7,789,1.0,0.5666666666666667,1,175.06816203155628,Male
1,790,0.0,0.3333333333333333,0,79.4058979617997,Male
7,791,1.0,0.6666666666666666,0,125.96477527895875,Male
1,792,0.0,0.6333333333333333,0,45.57703056251578,Male
7,793,1.0,1.3333333333333333,1,208.21195306366977,Male
1,794,0.0,0.36666666666666664,0,93.27633312756497,Male
7,795,1.0,0.7333333333333333,1,153.36965283961098,Male
1,796,0.0,0.6333333333333333,1,147.8544158201748,Male
7,797,0.0,1.0,1,219.3752202398214,Male
7,798,1.0,0.6333333333333333,1,149.9770151550628,Male
1,799,0.0,0.5,0,96.63035235157429,Male
1,800,1.0,0.5666666666666667,0,90.40866152759254,Male
1,801,1.0,0.6333333333333333,0,64.7552335725803,Male
7,802,1.0,0.6666666666666666,0,113.71299134132315,Male
1,803,0.0,0.7333333333333333,0,91.28797001569468,Male
7,804,1.0,1.0666666666666667,1,225.6863609716422,Male
1,805,1.0,0.6,0,69.74516262574782,Male
7,806,0.0,0.7,0,131.95058301677423,Male
1,807,1.0,1.0333333333333334,1,176.01129071074573,Male
7,808,0.0,0.43333333333333335,1,170.05508971033555,Male
1,809,0.0,0.7666666666666667,0,119.59602340823675,Male
7,810,1.0,1.0,1,236.46454228753026,Male
1,811,0.0,0.36666666666666664,0,84.40307568108479,Male
7,812,1.0,0.6333333333333333,1,168.48344695589878,Male
1,813,1.0,0.26666666666666666,0,101.40076323524904,Male
7,814,0.0,0.3333333333333333,1,155.87129990443006,Male
7,815,1.0,0.6,0,124.76000223122146,Male
1,816,1.0,0.3333333333333333,0,103.52383767821287,Male
7,817,0.0,0.5333333333333333,1,142.16424910502832,Male
1,818,1.0,0.6,0,117.5391148597762,Male
7,819,1.0,0.6666666666666666,0,128.62285727196027,Male
1,820,1.0,0.7,0,131.2600053593269,Male
7,821,0.0,0.7666666666666667,1,161.57096464754287,Male
1,822,1.0,1.3,1,189.26194624303648,Male
7,823,1.0,0.43333333333333335,1,172.00610744004678,Male
1,824,1.0,0.7333333333333333,0,73.30133805052193,Male
7,825,0.0,0.7,0,122.67257834377503,Male
1,826,1.0,1.0333333333333334,1,152.74315286942536,Male
7,827,1.0,0.4666666666666667,1,180.46732676119265,Male
1,828,1.0,0.7666666666666667,0,76.58600181570422,Male
7,829,0.0,0.7666666666666667,1,142.45308217615917,Male
1,830,1.0,1.1,1,170.15395056163882,Male
7,831,1.0,0.5,1,180.95011791291384,Male
1,832,1.0,0.7666666666666667,0,57.74177525570511,Male
7,833,1.0,0.6666666666666666,1,162.40835118647246,Male
7,834,1.0,0.5666666666666667,1,136.8588006478656,Male
7,835,1.0,1.0,1,203.17308009730993,Male
1,836,0.0,0.3,0,81.77374758520627,Male
7,837,1.0,0.7666666666666667,0,131.6617628579667,Male
1,838,1.0,0.6,0,118.2513299241746,Male
7,839,0.0,0.7666666666666667,1,177.79472031751354,Male
1,840,1.0,1.1666666666666667,1,181.64336094251226,Male
7,841,1.0,0.3,1,166.79936886679548,Male
1,842,1.0,0.8,0,92.61736428229646,Male
7,843,1.0,0.36666666666666664,1,155.4614526756054,Male
1,844,1.0,0.26666666666666666,0,49.57113874326511,Male
7,845,1.0,0.5666666666666667,0,128.49118730947126,Male
1,846,0.0,0.6666666666666666,1,140.74000012476986,Male
7,847,1.0,0.9666666666666667,1,192.57995071256502,Male
1,848,0.0,0.3333333333333333,1,153.55863585499094,Male
7,849,1.0,0.7333333333333333,1,172.50635341470937,Male
1,850,1.0,0.5666666666666667,0,77.54298904338238,Male
7,851,0.0,0.7666666666666667,0,122.44525130915027,Male
1,852,1.0,0.9,1,163.80436934505636,Male
7,853,0.0,0.3333333333333333,1,172.08577934486638,Male
1,854,1.0,0.7333333333333333,0,48.214555789361356,Male
7,855,0.0,0.7333333333333333,0,97.68047012604684,Male
1,856,1.0,1.0333333333333334,1,168.79939539636567,Male
7,857,1.0,0.5333333333333333,1,185.06586111622795,Male
1,858,1.0,0.6,0,64.53918754821466,Male
7,859,1.0,0.3,1,152.77406951104763,Male
1,860,1.0,0.5666666666666667,0,91.90659120979521,Male
7,861,0.0,0.7,1,146.29463285023866,Male
1,862,1.0,1.0666666666666667,1,229.94937454709913,Male
7,863,1.0,0.7666666666666667,1,165.5195386952365,Male
1,864,0.0,0.6666666666666666,0,59.81842041576342,Male
7,865,1.0,0.8333333333333334,1,198.72887955085827,Male
1,866,0.0,0.36666666666666664,0,91.96723166465225,Male
7,867,1.0,0.8,1,179.6997448665445,Male
1,868,0.0,0.26666666666666666,0,121.96618226350084,Male
1,869,1.0,0.4,0,41.27209382716986,Male
7,870,1.0,0.26666666666666666,1,154.37564082670434,Male
1,871,0.0,0.43333333333333335,0,45.60631883080213,Male
7,872,1.0,0.5666666666666667,1,146.55112644569488,Male
1,873,1.0,0.6333333333333333,0,121.14732784563903,Male
7,874,1.0,0.5666666666666667,1,181.00215819184817,Male
7,875,1.0,0.7333333333333333,0,132.172155726631,Male
1,876,0.0,0.6666666666666666,0,131.33769105773624,Male
7,877,0.0,0.7666666666666667,1,215.1676765659259,Male
1,878,1.0,0.9333333333333333,1,143.27216778661784,Male
7,879,0.0,0.3333333333333333,1,174.6423088642052,Male
1,880,1.0,1.0666666666666667,1,153.81451432969965,Male
7,881,1.0,0.43333333333333335,1,163.14685255010912,Male
1,882,1.0,0.7333333333333333,1,147.2560020834055,Male
7,883,0.0,0.7333333333333333,0,108.64200435987472,Male
1,884,0.0,1.1666666666666667,1,210.03736740575522,Male
7,885,1.0,1.2,1,244.75812748561808,Male
1,886,1.0,0.6666666666666666,0,100.64102489351006,Male
7,887,0.0,0.7666666666666667,1,167.91318363306786,Male
1,888,1.0,1.0666666666666667,1,177.56348884946607,Male
7,889,0.0,0.5,1,189.06596159022484,Male
1,890,1.0,0.8333333333333334,1,163.8487008166071,Male
7,891,0.0,0.5666666666666667,1,155.8680032634988,Male
1,892,1.0,0.7333333333333333,0,45.374184872787055,Male
7,893,1.0,1.2,1,230.49432191972343,Male
1,894,1.0,0.6333333333333333,0,98.66959367320031,Male
7,895,1.0,0.7,1,168.64129946270475,Male
1,896,0.0,0.7,0,31.881118116678426,Male
7,897,1.0,0.9666666666666667,1,224.81229754816903,Male
1,898,1.0,0.7333333333333333,1,155.80670181959573,Male
7,899,1.0,0.8,1,166.84496484668693,Male
1,900,0.0,0.9333333333333333,1,235.8721325765765,Male
1,901,1.0,0.8666666666666667,0,109.93652546039516,Male
7,902,1.0,0.8333333333333334,1,163.7749110112194,Male
7,903,1.0,0.6,0,124.65950726300844,Male
1,904,1.0,0.3,0,77.77223976877286,Male
7,905,0.0,0.26666666666666666,1,134.64197627996106,Male
1,906,1.0,0.4666666666666667,0,83.50601423016697,Male
1,907,1.0,0.5333333333333333,0,66.55415219099854,Male
7,908,0.0,0.3333333333333333,1,150.90390671319878,Male
1,909,1.0,0.3333333333333333,0,82.67457284324244,Male
7,910,0.0,0.6,1,154.96017005623838,Male
1,911,1.0,0.9,0,131.97057645890922,Male
7,912,1.0,0.6,1,181.66762424434336,Male
1,913,1.0,0.7333333333333333,1,138.2698498561626,Male
7,914,0.0,0.7333333333333333,1,157.45171865828954,Male
1,915,0.0,1.2666666666666666,1,216.30547641638964,Male
7,916,1.0,1.1,1,191.40142798884466,Male
1,917,0.0,0.36666666666666664,0,125.58790899846137,Male
7,918,1.0,0.8,1,164.78602550139172,Male
1,919,1.0,0.5,0,76.01885534128823,Male
7,920,1.0,0.3,1,150.1651542688476,Male
1,921,1.0,0.3333333333333333,0,72.36214485367213,Male
7,922,0.0,0.36666666666666664,1,152.6126855047181,Male
1,923,1.0,0.5666666666666667,0,89.75982880805958,Male
7,924,0.0,0.8,0,119.65274881556174,Male
1,925,1.0,1.0666666666666667,1,186.32874628436568,Male
7,926,0.0,0.3,1,155.223041520909,Male
1,927,0.0,0.7666666666666667,0,72.7690722673014,Male
7,928,1.0,1.1,1,188.70154430348654,Male
1,929,0.0,0.36666666666666664,0,114.33691164724753,Male
7,930,1.0,0.7666666666666667,1,175.51231949506237,Male
1,931,0.0,0.7666666666666667,0,107.33193134880283,Male
7,932,0.0,0.9666666666666667,1,196.2828400297591,Male
1,933,0.0,0.9333333333333333,1,170.74154252854856,Male
7,934,1.0,1.0,1,188.05442362016743,Male
1,935,0.0,0.36666666666666664,1,141.06339633892216,Male
7,936,1.0,0.6333333333333333,1,177.28508415178084,Male
1,937,0.0,0.6666666666666666,1,153.86795390515059,Male
7,938,1.0,0.7666666666666667,1,186.06395275379992,Male
1,939,1.0,0.7,0,127.58476123743468,Male
1,940,1.0,0.6,0,113.53882421483617,Male
7,941,0.0,0.7,0,120.32688052199362,Male
1,942,1.0,0.9,1,156.34858092478066,Male
7,943,0.0,0.36666666666666664,1,178.73130312945526,Male
1,944,0.0,0.6666666666666666,0,127.22606449325824,Male
7,945,1.0,0.9333333333333333,1,207.75383391861172,Male
1,946,1.0,0.6,0,123.14229158983161,Male
7,947,1.0,0.7666666666666667,1,166.86589988825622,Male
7,948,1.0,0.6333333333333333,0,126.70710532992948,Male
1,949,0.0,0.5666666666666667,0,56.41875285167385,Male
7,950,1.0,0.9,1,187.70096981854266,Male
1,951,0.0,0.4,1,137.20780346704035,Male
7,952,1.0,0.7666666666666667,1,159.0194289769279,Male
1,953,0.0,0.7,0,68.81039574121894,Male
1,954,1.0,0.5,0,79.21961844035876,Male
7,955,1.0,0.5666666666666667,0,129.07764690756318,Male
1,956,1.0,0.4666666666666667,0,105.00838702434865,Male
7,957,0.0,0.7,1,138.83950944208883,Male
1,958,1.0,0.8666666666666667,1,159.1219324529381,Male
7,959,0.0,0.3333333333333333,1,178.48009900197212,Male
1,960,1.0,0.6666666666666666,0,80.70130265961606,Male
7,961,1.0,0.43333333333333335,1,168.60759382678873,Male
1,962,1.0,0.36666666666666664,0,120.71537043298777,Male
7,963,0.0,0.4,1,161.27365056422641,Male
1,964,1.0,0.6333333333333333,0,122.86485948557021,Male
7,965,1.0,0.7333333333333333,0,131.02882422378255,Male
1,966,0.0,0.6666666666666666,1,149.2731156580994,Male
7,967,1.0,0.9666666666666667,1,189.0771998211073,Male
1,968,0.0,0.5666666666666667,0,61.260653034904465,Male
7,969,1.0,1.0333333333333334,1,194.57343723846614,Male
1,970,1.0,0.7,0,130.98913196147248,Male
7,971,1.0,0.7,1,186.01645774658311,Male
1,972,1.0,0.7,0,71.14575836089685,Male
7,973,1.0,0.7666666666666667,1,137.96890442079976,Male
1,974,1.0,0.6333333333333333,0,69.42838071706463,Male
7,975,0.0,0.8,1,146.76033618686117,Male
1,976,0.0,1.0333333333333334,1,165.08193076108316,Male
7,977,1.0,0.6,1,170.8765697457267,Male
1,978,0.0,0.7,0,77.34392253906063,Male
7,979,1.0,1.7,1,189.46892378134532,Male
1,980,0.0,0.3,0,109.25363195042158,Male
7,981,1.0,0.6666666666666666,1,168.21756021655162,Male
1,982,1.0,0.43333333333333335,0,97.60784849027769,Male
7,983,0.0,0.6,1,157.11012378427978,Male
1,984,0.0,0.9,0,123.55390067206963,Male
7,985,0.0,1.2666666666666666,1,200.31909918548192,Male
1,986,1.0,1.0,1,189.56517451124748,Male
7,987,0.0,0.4,1,164.5542530617203,Male
1,988,1.0,0.9666666666666667,1,153.617610296112,Male
7,989,1.0,0.8,1,137.10511463182695,Male
1,990,0.0,0.7666666666666667,1,140.45467249435242,Male
7,991,1.0,0.9,1,226.5642111247745,Male
1,992,0.0,0.36666666666666664,0,75.70617772113899,Male
7,993,1.0,0.6666666666666666,1,163.73899675340095,Male
1,994,1.0,0.3,0,94.0939054495057,Male
7,995,0.0,0.8333333333333334,1,139.09945863241072,Male
1,996,1.0,0.8666666666666667,1,146.22688704845183,Male
7,997,1.0,0.5,1,149.52732940164006,Male
1,998,1.0,0.7,0,69.27844223150409,Male
7,999,0.0,0.36666666666666664,1,165.07690570376974,Male
1,1000,0.0,0.9666666666666667,0,112.9911248932194,Male
7,1001,1.0,1.3666666666666667,1,202.069834608877,Male
1,1002,0.0,0.6,1,169.1370204986684,Male
7,1003,1.0,0.9,1,203.60210060597888,Male
1,1004,0.0,0.6,0,103.78889211640286,Male
7,1005,1.0,0.9,1,212.56835714072614,Male
1,1006,0.0,0.6666666666666666,1,136.8519260319596,Male
1,1007,1.0,0.5,0,35.90764714983906,Male
1,1008,0.0,0.5666666666666667,1,152.06274108708323,Male
7,1009,1.0,0.9333333333333333,1,199.63668561637206,Male
7,1010,1.0,0.6,0,124.75309975239269,Male
1,1011,1.0,0.6666666666666666,0,111.54673980290578,Male
7,1012,1.0,0.8,1,140.69053926486694,Male
1,1013,0.0,0.7333333333333333,1,145.85941246456102,Male
7,1014,1.0,1.3333333333333333,1,199.75474595983272,Male
1,1015,0.0,0.36666666666666664,0,111.96517505785712,Male
7,1016,1.0,0.8333333333333334,1,157.6029927357904,Male
1,1017,0.0,0.7666666666666667,0,118.98337135828388,Male
7,1018,1.0,0.7333333333333333,1,175.6561521575286,Male
1,1019,0.0,0.43333333333333335,0,129.68575724783813,Male
7,1020,1.0,0.7666666666666667,1,143.71387666295223,Male
1,1021,0.0,0.6666666666666666,0,111.11448633609578,Male
7,1022,1.0,0.9333333333333333,1,186.6390150294271,Male
1,1023,1.0,0.5666666666666667,0,89.8742797251413,Male
7,1024,1.0,0.6666666666666666,1,135.44957692201774,Male
1,1025,0.0,0.36666666666666664,0,125.16965103892538,Male
7,1026,1.0,0.3,0,118.04828509452607,Male
1,1027,0.0,0.43333333333333335,0,96.61040589453928,Male
1,1028,0.0,0.5333333333333333,0,70.34381753098431,Male
7,1029,1.0,1.1666666666666667,1,209.27003405531025,Male
1,1030,1.0,0.5666666666666667,1,173.35425959234894,Male
7,1031,1.0,0.7666666666666667,0,121.91914401543038,Male
1,1032,1.0,0.6666666666666666,0,96.03258106735966,Male
7,1033,0.0,0.7,1,149.72173648142157,Male
1,1034,1.0,0.9666666666666667,1,155.370499422461,Male
7,1035,0.0,0.5,1,172.93649527018616,Male
1,1036,1.0,0.5666666666666667,0,41.29595453941371,Male
7,1037,1.0,0.36666666666666664,1,156.03588259854652,Male
7,1038,1.0,0.6,0,127.97951787467414,Male
1,1039,1.0,0.3,0,77.8803160425421,Male
7,1040,1.0,0.3333333333333333,1,140.71530492073086,Male
1,1041,1.0,0.3,0,102.17346673854742,Male
7,1042,1.0,0.43333333333333335,1,142.70503703075926,Male
1,1043,0.0,0.3,1,136.74629559733222,Male
7,1044,0.0,0.6,0,117.23209995762521,Male
1,1045,1.0,0.8,0,105.09570611604448,Male
7,1046,1.0,0.7666666666666667,1,162.67174197391864,Male
1,1047,0.0,0.7666666666666667,0,114.91618280229498,Male
7,1048,1.0,1.2,1,195.3191704207306,Male
7,1049,1.0,0.6333333333333333,0,118.95883778212435,Male
1,1050,0.0,0.6666666666666666,0,126.73688838226336,Male
7,1051,0.0,1.0,1,183.0862531189952,Male
1,1052,1.0,1.2333333333333334,1,249.14180500490997,Male
7,1053,1.0,0.5333333333333333,1,177.17285159008316,Male
1,1054,0.0,0.7666666666666667,1,133.72429554989102,Male
7,1055,1.0,0.9333333333333333,1,189.84746043709234,Male
1,1056,0.0,0.5,0,120.00393718399634,Male
1,1057,1.0,0.4,0,58.80962607878205,Male
7,1058,1.0,0.26666666666666666,1,136.59488865222204,Male
1,1059,1.0,0.26666666666666666,0,80.63050500726347,Male
7,1060,0.0,0.26666666666666666,1,155.223041520909,Male
7,1061,0.0,0.6333333333333333,0,131.51599079250283,Male
1,1062,1.0,0.9333333333333333,1,167.15203518011893,Male
7,1063,0.0,0.5,1,160.90669735193353,Male
1,1064,1.0,0.7666666666666667,0,108.70270692620421,Male
7,1065,0.0,0.7333333333333333,1,152.4761230094355,Male
1,1066,0.0,0.9666666666666667,1,182.43910514238232,Male
7,1067,1.0,0.7333333333333333,1,175.2718421237452,Male
1,1068,0.0,0.3333333333333333,0,98.94399692932609,Male
7,1069,1.0,0.7333333333333333,1,172.40590463040678,Male
1,1070,0.0,0.6,0,46.7463907693916,Male
7,1071,1.0,0.9,1,189.074551169036,Male
1,1072,0.0,0.5,0,128.27370914591592,Male
7,1073,1.0,0.8333333333333334,0,122.11350703933776,Male
1,1074,1.0,0.7666666666666667,0,56.46294138299026,Male
7,1075,0.0,0.7,0,102.18491778471167,Male
7,1076,1.0,0.7333333333333333,0,133.51926438850583,Male
1,1077,0.0,0.8666666666666667,1,145.0478539047613,Male
7,1078,1.0,1.0333333333333334,1,200.21087558071807,Male
1,1079,1.0,0.6666666666666666,0,73.33645090751331,Male
7,1080,1.0,0.7666666666666667,0,106.914264597489,Male
1,1081,0.0,0.7333333333333333,0,121.71583978392837,Male
7,1082,0.0,1.2,1,201.70907137784212,Male
7,1083,1.0,0.6,0,34.95065148249411,Male
1,1084,1.0,0.6666666666666666,0,117.29787585070119,Male
7,1085,1.0,0.6666666666666666,0,100.28453894090545,Male
1,1086,1.0,0.4,1,134.9495634680337,Male
7,1087,1.0,0.26666666666666666,0,59.08674652774852,Male
7,1088,1.0,0.6,0,79.100874814214,Male
1,1089,1.0,0.7666666666666667,1,139.3532171109681,Male
7,1090,1.0,0.7666666666666667,0,133.25021943541984,Male
1,1091,0.0,0.7333333333333333,1,164.25605602965805,Male
7,1092,0.0,1.0,1,216.92238657893398,Male
1,1093,1.0,1.2,1,186.7173547945742,Male
7,1094,1.0,0.5,1,162.01556721242852,Male
1,1095,1.0,0.6666666666666666,1,156.57197119348908,Male
7,1096,0.0,0.6333333333333333,0,23.74170094472576,Male
1,1097,1.0,0.9,1,181.66450485392522,Male
1,1098,1.0,0.5333333333333333,0,105.1925038397648,Male
1,1099,1.0,0.6,1,138.51686282333787,Male
7,1100,0.0,0.7333333333333333,1,149.2683677527945,Male
1,1101,1.0,1.2333333333333334,1,181.77247722945037,Male
7,1102,1.0,0.5333333333333333,1,167.26752871006877,Male
1,1103,1.0,0.6666666666666666,0,113.41833271035628,Male
7,1104,0.0,0.7,0,99.28488945918666,Male
1,1105,1.0,1.1,1,204.47724626605765,Male
7,1106,0.0,0.36666666666666664,0,107.10042195534604,Male
1,1107,0.0,0.6333333333333333,1,156.4970547005123,Male
7,1108,1.0,0.5666666666666667,0,92.30195094381449,Male
7,1109,1.0,0.4666666666666667,0,78.14312619229533,Male
1,1110,1.0,0.6666666666666666,1,136.31518914060635,Male
7,1111,1.0,0.7,0,115.92476268018068,Male
7,1112,1.0,0.6,0,31.88864302696283,Male
1,1113,1.0,0.7333333333333333,1,162.7307949441582,Male
7,1114,1.0,0.6333333333333333,0,133.27060441414082,Male
7,1115,1.0,0.36666666666666664,0,69.52691155598563,Male
1,1116,0.0,0.7,1,172.11465389779354,Male
7,1117,1.0,0.5333333333333333,1,138.25640986436872,Male
1,1118,0.0,0.3,1,164.1590302734352,Male
7,1119,1.0,0.3,0,60.72981567853331,Male
1,1120,0.0,0.7333333333333333,0,123.57187011137633,Male
7,1121,1.0,0.9333333333333333,1,191.26624869817562,Male
1,1122,0.0,0.4,1,180.5343267029545,Male
7,1123,1.0,0.7333333333333333,0,117.06441370049647,Male
1,1124,1.0,0.7333333333333333,1,153.00739472579505,Male
7,1125,1.0,0.7333333333333333,0,133.1715334947281,Male
1,1126,1.0,1.0333333333333334,1,155.94759093689538,Male
1,1127,1.0,0.5333333333333333,0,116.11082712682934,Male
7,1128,0.0,0.36666666666666664,0,65.75910764700444,Male
1,1129,1.0,0.6666666666666666,1,155.62852224076556,Male
7,1130,1.0,0.7333333333333333,1,151.25016212088755,Male
1,1131,0.0,0.7,1,162.25946496704717,Male
7,1132,1.0,1.2,1,253.829841722018,Male
1,1133,0.0,0.4,1,161.15023462183262,Male
7,1134,1.0,0.9,0,123.18258974395174,Male
1,1135,0.0,0.7,1,160.35144837214798,Male
7,1136,1.0,1.1333333333333333,1,211.38615129261305,Male
7,1137,1.0,0.5333333333333333,0,92.10197528699814,Male
1,1138,0.0,0.7333333333333333,0,119.59092398733807,Male
7,1139,1.0,0.9333333333333333,1,245.95611303132466,Male
1,1140,1.0,0.5666666666666667,1,149.76995557008303,Male
7,1141,1.0,0.6333333333333333,0,26.62611333096764,Male
1,1142,1.0,0.6333333333333333,0,108.84464297378793,Male
7,1143,0.0,0.7666666666666667,0,107.9922218201158,Male
1,1144,1.0,1.1666666666666667,1,207.53606541334852,Male
7,1145,0.0,0.3333333333333333,0,88.37036038783994,Male
1,1146,1.0,0.7,1,149.9770151550628,Male
7,1147,0.0,0.6666666666666666,0,125.83139111307942,Male
1,1148,1.0,0.9333333333333333,1,218.723741044608,Male
7,1149,1.0,0.5333333333333333,0,72.97484533903575,Male
1,1150,1.0,0.7666666666666667,1,165.45224561942916,Male
7,1151,0.0,0.6666666666666666,0,130.6609645578996,Male
1,1152,1.0,1.0333333333333334,1,183.93227231823445,Male
7,1153,0.0,0.3333333333333333,0,131.70235770490106,Male
1,1154,1.0,0.8666666666666667,1,146.187028670782,Male
7,1155,1.0,0.3,0,76.49695995383163,Male
1,1156,1.0,0.3333333333333333,1,148.3930381800379,Male
7,1157,0.0,0.4,0,49.46512069407156,Male
1,1158,0.0,0.6666666666666666,1,159.92898292864118,Male
7,1159,1.0,0.7,0,123.50075046626075,Male
1,1160,0.0,0.26666666666666666,1,175.8181417479512,Male
1,1161,0.0,0.6,0,105.79812726014026,Male
7,1162,1.0,0.9,1,172.74212082208268,Male
1,1163,0.0,0.36666666666666664,1,166.15472255303646,Male
7,1164,1.0,0.7333333333333333,0,128.51992365263948,Male
1,1165,1.0,0.5333333333333333,0,101.5264056129319,Male
7,1166,1.0,0.26666666666666666,0,72.99412312757804,Male
1,1167,1.0,0.23333333333333334,1,141.33128814304845,Male
1,1168,1.0,0.5666666666666667,0,120.60824319449688,Male
7,1169,1.0,0.6333333333333333,0,92.96794363004258,Male
1,1170,0.0,0.8666666666666667,1,142.76222958159414,Male
7,1171,1.0,1.1333333333333333,1,250.7492836700005,Male
1,1172,1.0,0.3333333333333333,1,179.15837128380514,Male
7,1173,1.0,0.8333333333333334,0,124.49365849244364,Male
1,1174,1.0,0.7,1,180.3867611348114,Male
7,1175,0.0,0.6333333333333333,1,135.86368971162867,Male
1,1176,1.0,0.7333333333333333,1,167.19939753190167,Male
7,1177,0.0,0.3333333333333333,0,129.5256870835187,Male
1,1178,0.0,0.8,1,159.32755661829103,Male
1,1179,1.0,0.6333333333333333,0,115.02165997931613,Male
7,1180,0.0,0.7666666666666667,0,129.29335871924582,Male
1,1181,1.0,1.3666666666666667,1,192.92884165097476,Male
7,1182,1.0,0.6,0,86.62703855859198,Male
1,1183,1.0,0.7333333333333333,0,123.22342615503932,Male
7,1184,1.0,0.3,0,95.19162129558939,Male
1,1185,1.0,0.5666666666666667,0,113.90412180176061,Male
7,1186,1.0,0.43333333333333335,0,61.49306869265893,Male
1,1187,1.0,0.5666666666666667,1,154.09121301626627,Male
7,1188,0.0,0.6333333333333333,0,40.934445934948826,Male
1,1189,1.0,1.0666666666666667,1,201.19167150894413,Male
7,1190,0.0,0.4666666666666667,0,66.62168652101406,Male
1,1191,1.0,0.6666666666666666,0,120.2672155847135,Male
7,1192,1.0,0.5,0,50.744586932417796,Male
1,1193,1.0,0.6,1,139.06694067420116,Male
1,1194,1.0,0.6,1,152.9683796676128,Male
7,1195,1.0,0.7666666666666667,0,119.37005853041946,Male
1,1196,0.0,0.7666666666666667,1,138.81647469480842,Male
7,1197,0.0,1.2,1,222.61906050686878,Male
7,1198,1.0,0.5,1,146.12869313429968,Male
1,1199,0.0,0.7333333333333333,1,144.48142689916682,Male
7,1200,1.0,1.1333333333333333,1,199.13773160877128,Male
1,1201,1.0,0.7,1,141.86494471090217,Male
7,1202,1.0,0.7666666666666667,0,62.177583297674055,Male
1,1203,0.0,0.7333333333333333,1,153.22432839935132,Male
7,1204,1.0,1.1333333333333333,1,217.43867726943583,Male
1,1205,0.0,0.7666666666666667,1,183.78668122021958,Male
7,1206,1.0,0.8,1,164.964516836272,Male
1,1207,1.0,0.6666666666666666,1,147.0509133513549,Male
7,1208,0.0,0.8333333333333334,0,77.01318168646107,Male
1,1209,0.0,1.1,1,219.76791625805473,Male
1,1210,0.0,0.9,1,162.37062877361186,Male
7,1211,1.0,1.3,1,249.0720281042431,Male
1,1212,0.0,0.16666666666666666,1,164.47090460629406,Male
7,1213,1.0,0.7666666666666667,0,87.04417792036313,Male
1,1214,1.0,0.7,1,137.69754828649192,Male
7,1215,0.0,0.7333333333333333,1,134.00573947657327,Male
1,1216,1.0,0.9666666666666667,1,187.7935086367495,Male
7,1217,0.0,0.43333333333333335,0,122.43279063377217,Male
1,1218,0.0,0.9,1,195.9281560311427,Male
7,1219,1.0,1.2,1,199.0939524096624,Male
1,1220,1.0,0.7666666666666667,1,146.29434864500763,Male
7,1221,0.0,0.8333333333333334,0,123.7507807375414,Male
1,1222,1.0,0.8,1,175.14363971834098,Male
1,1223,1.0,0.8,1,189.24581510777904,Male
7,1224,0.0,0.36666666666666664,0,102.90661516015027,Male
1,1225,0.0,0.8,1,157.1076188907514,Male
7,1226,1.0,0.8333333333333334,1,173.1116004862668,Male
1,1227,0.0,0.3333333333333333,1,169.7526338765379,Male
7,1228,1.0,0.7333333333333333,0,99.1494353577889,Male
1,1229,1.0,0.8333333333333334,0,121.03716036043099,Male
7,1230,0.0,0.8,0,113.55775425543456,Male
1,1231,1.0,1.1,1,217.45887078530282,Male
7,1232,1.0,0.7666666666666667,1,137.84740051342195,Male
1,1233,0.0,0.8666666666666667,1,133.7176636678316,Male
7,1234,0.0,1.1333333333333333,1,247.10358803515686,Male
1,1235,0.0,1.0666666666666667,1,198.84334092071012,Male
7,1236,1.0,0.9666666666666667,1,194.8858572435004,Male
1,1237,1.0,0.5666666666666667,0,102.75160699183353,Male
7,1238,1.0,0.3333333333333333,0,79.94154692538709,Male
1,1239,1.0,0.26666666666666666,0,125.28329886237549,Male
7,1240,0.0,0.3333333333333333,0,75.40842518229644,Male
1,1241,1.0,0.6333333333333333,1,150.4283608403469,Male
1,1242,1.0,0.5666666666666667,0,107.31404259808659,Male
7,1243,1.0,0.7,0,23.986513540782905,Male
1,1244,0.0,0.8,1,149.17551236641657,Male
7,1245,1.0,1.2666666666666666,1,274.4780596022061,Male
1,1246,1.0,0.6666666666666666,1,165.50652990324016,Male
7,1247,1.0,0.4666666666666667,0,119.89320352927655,Male
1,1248,1.0,0.3,1,169.03282494446307,Male
7,1249,1.0,0.7333333333333333,0,90.30130735644066,Male
1,1250,1.0,0.7333333333333333,1,164.99815704024246,Male
1,1251,1.0,0.7,1,135.87782715068423,Male
7,1252,1.0,0.7333333333333333,1,152.75908456613374,Male
1,1253,1.0,0.7333333333333333,1,148.03761090773094,Male
7,1254,1.0,0.4666666666666667,0,96.37864564098298,Male
1,1255,1.0,0.6333333333333333,1,141.00523336551757,Male
7,1256,0.0,0.4,0,82.07759046454998,Male
1,1257,1.0,0.6,0,117.49810901652226,Male
7,1258,1.0,1.1333333333333333,0,130.86178935803858,Male
7,1259,1.0,0.5,0,87.45614092827306,Male
1,1260,1.0,0.6,1,143.07256297815024,Male
7,1261,0.0,0.8,0,122.80280379255416,Male
1,1262,1.0,1.9,1,174.19833574517054,Male
7,1263,0.0,0.6333333333333333,0,46.99729205081428,Male
1,1264,1.0,0.9666666666666667,1,182.69076436103435,Male
1,1265,0.0,0.6,1,149.3603539638669,Male
7,1266,1.0,1.0,1,195.42643438321286,Male
1,1267,1.0,0.5666666666666667,0,117.85833673863854,Male
7,1268,0.0,0.6666666666666666,1,150.49755497850745,Male
1,1269,0.0,0.6666666666666666,1,179.53689518342014,Male
1,1270,0.0,0.6666666666666666,0,131.07263553158592,Male
1,1271,1.0,0.43333333333333335,0,115.11836341399038,Male
7,1272,0.0,0.7,1,146.28828967228966,Male
1,1273,1.0,0.9333333333333333,1,190.38170191697643,Male
7,1274,0.0,0.3,0,103.03048624232133,Male
1,1275,0.0,0.5333333333333333,1,187.47632078041013,Male
7,1276,1.0,0.7333333333333333,1,149.780372006761,Male
7,1277,1.0,0.9,1,182.5345870125363,Male
1,1278,0.0,0.3333333333333333,1,163.02464444890109,Male
7,1279,1.0,0.8,1,133.917644909796,Male
1,1280,1.0,0.7,1,147.72196498739865,Male
7,1281,1.0,0.7666666666666667,1,142.11316833545405,Male
7,1282,0.0,0.6,0,87.36046270032203,Male
1,1283,1.0,1.1333333333333333,1,214.76533156654523,Male
7,1284,0.0,0.36666666666666664,0,82.68455686788072,Male
1,1285,1.0,0.6333333333333333,1,148.28400024927635,Male
7,1286,0.0,0.8,0,130.13742245267326,Male
1,1287,1.0,1.1333333333333333,1,200.1027542542208,Male
7,1288,0.0,0.5,0,85.59715038762499,Male
7,1289,0.0,0.9666666666666667,1,256.99647981672535,Male
1,1290,1.0,0.8333333333333334,1,148.92926478136224,Male
7,1291,1.0,0.7,0,54.22506905492105,Male
1,1292,0.0,0.6,1,165.21616161355146,Male
1,1293,1.0,0.5333333333333333,1,155.463899400583,Male
1,1294,1.0,0.5333333333333333,0,48.25932547294771,Male
7,1295,0.0,0.3,0,131.71003101595315,Male
1,1296,1.0,0.5666666666666667,0,51.54322023617122,Male
7,1297,1.0,0.7333333333333333,1,144.56835590719663,Male
1,1298,1.0,0.6333333333333333,0,53.223708364518465,Male
7,1299,0.0,0.7666666666666667,1,136.73386833570618,Male
1,1300,0.0,1.1666666666666667,1,229.73621010752458,Male
7,1301,1.0,0.8333333333333334,1,182.87072482695362,Male
1,1302,0.0,0.36666666666666664,0,129.73718565877306,Male
7,1303,1.0,0.8,1,141.33128814304845,Male
1,1304,0.0,0.7,1,163.46356577198193,Male
7,1305,1.0,0.7666666666666667,1,168.69528243775233,Male
1,1306,0.0,0.3333333333333333,0,119.1800512751762,Male
7,1307,1.0,0.7666666666666667,0,129.61211367057558,Male
1,1308,1.0,0.6666666666666666,0,78.76165311973378,Male
1,1309,0.0,0.7333333333333333,0,93.59989319997669,Male
7,1310,1.0,1.0,1,230.61791367092965,Male
1,1311,0.0,0.36666666666666664,0,78.24556427551188,Male
7,1312,1.0,0.7333333333333333,1,161.14661876744734,Male
1,1313,0.0,0.5666666666666667,0,62.70039822151041,Male
7,1314,1.0,0.9,1,210.45309685508974,Male
1,1315,0.0,0.4,0,45.66104547606699,Male
7,1316,1.0,0.7,1,176.2868400125343,Male
7,1317,1.0,0.6,1,137.46962298916614,Male
1,1318,0.0,0.6666666666666666,1,178.56006353418545,Male
7,1319,1.0,0.8666666666666667,1,191.44915223388261,Male
1,1320,0.0,0.36666666666666664,1,148.64261619489096,Male
7,1321,0.0,0.8,1,140.4697110122571,Male
1,1322,1.0,0.9333333333333333,1,199.96182126385634,Male
7,1323,0.0,0.4,1,166.79936886679548,Male
1,1324,1.0,0.8333333333333334,1,140.23606336748608,Male
1,1325,1.0,0.4666666666666667,0,67.58306554524329,Male
7,1326,0.0,0.7,1,155.1726305810659,Male
7,1327,1.0,0.6,0,118.02841462746406,Male
1,1328,1.0,0.5666666666666667,0,90.59710830798407,Male
7,1329,0.0,0.7,0,121.87145022962189,Male
1,1330,1.0,1.1,1,202.79651589680788,Male
7,1331,1.0,0.6666666666666666,1,136.84973261526508,Male
1,1332,1.0,0.6,0,97.96167228096624,Male
7,1333,1.0,0.4,1,144.64369047522317,Male
1,1334,0.0,0.5333333333333333,0,89.41590201353844,Male
7,1335,1.0,0.7333333333333333,0,97.69907685869237,Male
1,1336,0.0,0.6666666666666666,0,118.72761779512683,Male
7,1337,1.0,1.5,1,186.870806984886,Male
1,1338,0.0,0.3333333333333333,0,114.70524306243186,Male
7,1339,1.0,0.7,1,178.19085375311235,Male
1,1340,1.0,0.3333333333333333,0,81.61191229300621,Male
7,1341,1.0,0.3333333333333333,1,156.67847849412934,Male
1,1342,1.0,0.3333333333333333,0,63.37057963444107,Male
7,1343,0.0,0.4666666666666667,1,155.33942483367454,Male
1,1344,0.0,0.6666666666666666,1,184.6086617618267,Male
7,1345,1.0,0.8666666666666667,1,201.00488775935636,Male
1,1346,0.0,0.3,0,94.91331558170947,Male
7,1347,1.0,1.1,1,172.4959931392681,Male
1,1348,0.0,0.3,0,131.07483613546714,Male
7,1349,1.0,0.7,0,130.90740336799843,Male
1,1350,1.0,0.3333333333333333,1,138.14796611415687,Male
7,1351,0.0,0.9666666666666667,1,162.7955904049891,Male
7,1352,0.0,0.7,1,139.99878728223186,Male
1,1353,1.0,1.1,1,192.86274514566006,Male
7,1354,1.0,0.6333333333333333,0,111.68773508068863,Male
1,1355,1.0,0.3,0,46.03950868569516,Male
7,1356,1.0,0.36666666666666664,1,137.65751100190874,Male
7,1357,1.0,0.6,0,117.71847926509363,Male
1,1358,1.0,0.5666666666666667,0,82.34053001711047,Male
7,1359,1.0,0.6333333333333333,0,130.48561455485267,Male
1,1360,0.0,0.7,0,128.8712883564587,Male
7,1361,1.0,1.3,1,231.71020922105805,Male
1,1362,1.0,0.7333333333333333,1,151.98807598696703,Male
7,1363,0.0,0.7666666666666667,1,155.36967023746374,Male
1,1364,1.0,0.9666666666666667,1,193.77837401117117,Male
1,1365,1.0,0.5,0,113.53882421483617,Male
7,1366,1.0,0.6,0,132.15841478357027,Male
1,1367,0.0,0.7333333333333333,0,56.6016846342832,Male
7,1368,1.0,0.7333333333333333,1,172.4062068422834,Male
1,1369,0.0,0.3333333333333333,1,156.7450791003377,Male
7,1370,1.0,0.8,1,147.49023696126724,Male
1,1371,1.0,0.6666666666666666,1,138.44541860441944,Male
7,1372,0.0,0.7333333333333333,1,155.39484454151113,Male
1,1373,1.0,1.1333333333333333,1,212.65918164888882,Male
7,1374,0.0,0.4,1,139.64733688450158,Male
1,1375,1.0,0.6,0,71.76597469115339,Male
7,1376,1.0,0.6333333333333333,0,120.25324845019539,Male
1,1377,0.0,0.6666666666666666,0,79.94868566372806,Male
7,1378,1.0,0.9,1,190.13107863221506,Male
1,1379,0.0,0.3333333333333333,0,92.49155184153517,Male
7,1380,1.0,0.6,1,166.62475635009116,Male
1,1381,0.0,0.3333333333333333,0,123.73404154441329,Male
7,1382,0.0,0.7333333333333333,1,174.2118466721829,Male
1,1383,1.0,0.6666666666666666,1,197.05407185414063,Male
7,1384,0.0,0.3,1,164.45137813952954,Male
1,1385,1.0,0.7333333333333333,0,62.05343430176402,Male
7,1386,0.0,0.7,1,193.92241668290075,Male
7,1387,1.0,0.5333333333333333,1,134.6273537800161,Male
1,1388,0.0,0.6666666666666666,0,129.36223577115348,Male
7,1389,1.0,0.9666666666666667,1,209.09193784765526,Male
1,1390,0.0,0.43333333333333335,0,73.48124860684258,Male
7,1391,1.0,0.6666666666666666,1,149.90274502306477,Male
1,1392,0.0,0.6666666666666666,0,73.5913897030187,Male
7,1393,1.0,0.9,1,207.78580328281942,Male
1,1394,1.0,0.4,0,44.13611310079071,Male
1,1395,1.0,0.4666666666666667,0,71.32848057052306,Male
7,1396,0.0,0.6666666666666666,1,144.30147986682584,Male
1,1397,1.0,1.2333333333333334,1,225.68631510834106,Male
7,1398,1.0,0.5333333333333333,1,160.43975866227333,Male
1,1399,0.0,0.8666666666666667,1,139.75781967193518,Male
7,1400,1.0,1.0666666666666667,1,203.04648910419488,Male
1,1401,0.0,0.3333333333333333,0,81.591425602153,Male
7,1402,0.0,0.7666666666666667,1,163.78208480751846,Male
1,1403,1.0,1.0,1,200.5119774666901,Male
7,1404,0.0,0.6666666666666666,1,168.66740299364,Male
1,1405,1.0,0.6666666666666666,1,155.3248165341031,Male
7,1406,1.0,0.3,1,173.49993895501487,Male
1,1407,1.0,0.6666666666666666,0,71.73539058604976,Male
7,1408,1.0,0.36666666666666664,1,162.9490407603024,Male
1,1409,0.0,0.7666666666666667,0,85.31307809584231,Male
7,1410,1.0,1.3,1,188.64323662720847,Male
1,1411,0.0,0.6666666666666666,0,68.21685524126751,Male
7,1412,1.0,0.9,1,214.27236911748807,Male
1,1413,1.0,0.6333333333333333,0,76.24236471234944,Male
7,1414,1.0,0.7666666666666667,1,137.6524407500907,Male
1,1415,0.0,0.8,0,99.76377161995134,Male
7,1416,0.0,1.2,1,215.2900943645131,Male
1,1417,0.0,0.8666666666666667,0,125.35585690175607,Male
7,1418,1.0,0.9,1,168.47844174468153,Male
1,1419,1.0,0.7666666666666667,1,136.6749951952668,Male
7,1420,0.0,0.8,1,160.386948756181,Male
1,1421,0.0,1.2,1,187.23171921460712,Male
7,1422,1.0,1.0,1,205.88608827189327,Male
1,1423,1.0,0.6666666666666666,0,125.75480954385051,Male
7,1424,0.0,0.8333333333333334,1,135.93899125446086,Male
1,1425,0.0,0.9666666666666667,1,150.3618700939519,Male
7,1426,1.0,0.8,1,224.92842294053395,Male
1,1427,1.0,0.6666666666666666,0,78.18468051822941,Male
7,1428,1.0,0.8333333333333334,0,128.25993588490522,Male
1,1429,0.0,0.5,0,77.19739587016551,Male
7,1430,1.0,0.43333333333333335,1,140.80564957971356,Male
1,1431,1.0,0.5,0,66.85578928715664,Male
7,1432,0.0,0.26666666666666666,1,150.0337810204506,Male
1,1433,1.0,0.43333333333333335,1,139.71665190314692,Male
7,1434,1.0,0.3,1,137.95219289881874,Male
1,1435,1.0,0.3,0,97.94540469916546,Male
7,1436,1.0,0.23333333333333334,1,154.4528866418515,Male
1,1437,1.0,0.36666666666666664,0,35.85452321572551,Male
7,1438,1.0,0.6,1,136.95311887709997,Male
1,1439,0.0,0.8333333333333334,1,153.35256179525558,Male
7,1440,0.0,0.9,1,218.5071152950246,Male
1,1441,0.0,1.0,1,178.52623610865004,Male
7,1442,1.0,1.3,1,208.68843334400623,Male
1,1443,1.0,0.6333333333333333,1,135.22912754432025,Male
7,1444,0.0,0.7666666666666667,1,169.61138785615128,Male
1,1445,1.0,0.6666666666666666,1,161.87685247521705,Male
7,1446,0.0,0.36666666666666664,1,168.06387941391685,Male
1,1447,1.0,0.8,0,111.71890309518321,Male
1,1448,1.0,0.6,0,54.125022806595,Male
7,1449,0.0,0.5666666666666667,1,171.30057770862635,Male
1,1450,1.0,1.0,0,127.05103007406252,Male
7,1451,0.0,0.5666666666666667,1,152.32458161094257,Male
1,1452,1.0,0.6333333333333333,0,54.99589781975399,Male
7,1453,0.0,0.8,1,138.7934287089149,Male
1,1454,1.0,0.9666666666666667,1,157.8621691745602,Male
7,1455,0.0,0.3333333333333333,1,167.1234405821755,Male
1,1456,0.0,0.8333333333333334,0,116.99320610799512,Male
7,1457,1.0,0.9333333333333333,1,228.51334752385998,Male
1,1458,1.0,0.6666666666666666,0,84.50330740659513,Male
7,1459,0.0,0.5,1,146.12257758796483,Male
1,1460,0.0,1.0,0,116.30089700000008,Male
7,1461,1.0,1.3,1,207.51387820150322,Male
1,1462,0.0,0.3333333333333333,0,91.4453394188406,Male
7,1463,1.0,0.7,1,148.4149809753371,Male
1,1464,1.0,0.6333333333333333,0,121.58932459095898,Male
7,1465,0.0,0.4,1,173.39123850231684,Male
7,1466,1.0,0.6,0,130.49617531377868,Male
1,1467,0.0,0.6666666666666666,0,116.70273179958627,Male
7,1468,1.0,0.5,1,166.60399545732267,Male
1,1469,0.0,0.26666666666666666,0,117.20757293650468,Male
7,1470,1.0,0.5666666666666667,0,122.49890576997873,Male
1,1471,1.0,0.5666666666666667,0,82.43135564846413,Male
7,1472,0.0,0.7333333333333333,1,144.9026176728271,Male
1,1473,1.0,1.0,1,156.11272886333288,Male
7,1474,1.0,0.43333333333333335,1,162.1706738891593,Male
1,1475,1.0,0.8,0,109.74982963239589,Male
7,1476,0.0,0.8333333333333334,1,155.78383282509034,Male
1,1477,0.0,1.0666666666666667,1,167.97469676042033,Male
7,1478,0.0,1.0333333333333334,1,207.0329668706045,Male
1,1479,1.0,1.4,1,256.8787099513403,Male
7,1480,1.0,0.8,1,141.23277232503986,Male
1,1481,1.0,0.4666666666666667,0,71.26268307389748,Male
7,1482,0.0,0.7,0,107.16417055195713,Male
1,1483,1.0,1.5,1,179.02916990640816,Male
7,1484,1.0,0.7,1,180.11881393921004,Male
1,1485,1.0,0.7,0,111.22505853760825,Male
7,1486,1.0,0.8333333333333334,0,130.38636225841893,Male
1,1487,0.0,0.7666666666666667,1,166.88248171943354,Male
7,1488,1.0,1.5666666666666667,1,200.71643753357148,Male
1,1489,0.0,0.3333333333333333,1,141.5752173732741,Male
7,1490,1.0,0.5333333333333333,1,147.72979817092113,Male
1,1491,0.0,0.3,1,137.2291668301536,Male
7,1492,0.0,1.0333333333333334,1,199.89879137667933,Male
1,1493,1.0,0.9333333333333333,1,184.36685460936442,Male
7,1494,0.0,0.3333333333333333,1,165.3812623949619,Male
1,1495,0.0,0.8666666666666667,0,74.18616235073645,Male
7,1496,1.0,1.2,1,220.10125860820307,Male
1,1497,0.0,0.7333333333333333,0,130.22391159828183,Male
7,1498,0.0,0.6666666666666666,1,163.26479148117738,Male
1,1499,1.0,1.1333333333333333,1,173.5042059857753,Male
7,1500,1.0,0.5,0,92.71384432438842,Male
1,1501,1.0,0.3,1,136.2467160896676,Male
7,1502,1.0,0.3333333333333333,0,63.7503534150864,Male
1,1503,1.0,0.26666666666666666,1,153.4002305353422,Male
7,1504,1.0,0.3333333333333333,0,64.71129011640805,Male
1,1505,1.0,0.5,1,148.27203130683188,Male
7,1506,0.0,0.4,0,81.00929777163277,Male
1,1507,1.0,0.6333333333333333,1,158.51998889265423,Male
7,1508,0.0,0.7333333333333333,0,125.26128475098942,Male
1,1509,1.0,1.0333333333333334,1,183.07517039766887,Male
7,1510,0.0,0.6333333333333333,0,95.99855167338104,Male
1,1511,1.0,0.9,1,200.1416533703389,Male
7,1512,0.0,0.36666666666666664,0,89.7510559458817,Male
1,1513,0.0,0.7333333333333333,1,175.41151172292913,Male
7,1514,1.0,0.9,1,192.6349805482397,Male
1,1515,0.0,0.7666666666666667,1,195.28834016555035,Male
7,1516,0.0,0.8666666666666667,1,172.84695408569104,Male
1,1517,1.0,1.2333333333333334,1,195.21973256873764,Male
7,1518,0.0,0.3333333333333333,0,97.2370320767435,Male
1,1519,0.0,0.8333333333333334,1,150.51084441841974,Male
7,1520,1.0,1.2333333333333334,1,215.5607342751452,Male
1,1521,0.0,0.7,0,132.49251748984398,Male
1,1522,1.0,0.7,1,166.81066084894138,Male
7,1523,0.0,0.7666666666666667,1,154.47602420404098,Male
1,1524,0.0,1.2,1,191.70087713108646,Male
7,1525,1.0,0.9333333333333333,1,186.90350255350114,Male
1,1526,1.0,0.36666666666666664,1,164.74213062458583,Male
7,1527,1.0,0.7333333333333333,0,126.24995049679949,Male
1,1528,0.0,1.0333333333333334,1,192.01181820185357,Male
1,1529,1.0,0.5,0,109.58829027190718,Male
7,1530,1.0,0.26666666666666666,0,80.62528131523774,Male
1,1531,1.0,0.3,1,138.269013766073,Male
7,1532,1.0,0.2,0,111.85040840475949,Male
1,1533,1.0,0.5333333333333333,1,140.46585257961792,Male
7,1534,1.0,0.6333333333333333,0,54.95115262409932,Male
1,1535,0.0,0.6666666666666666,1,134.9411636929677,Male
7,1536,1.0,0.8666666666666667,1,176.4274990507684,Male
1,1537,0.0,0.4,1,146.99951838460913,Male
7,1538,1.0,0.7666666666666667,1,149.75963916462527,Male
1,1539,0.0,0.7333333333333333,1,167.58911192159732,Male
7,1540,1.0,1.1666666666666667,1,297.3506007837193,Male
1,1541,1.0,0.7,1,165.38681211489146,Male
7,1542,1.0,0.8333333333333334,1,162.9750086174382,Male
1,1543,0.0,0.7666666666666667,1,155.3353490453664,Male
7,1544,1.0,1.2666666666666666,1,246.58319789229714,Male
7,1545,0.0,0.6333333333333333,0,96.78200358870708,Male
1,1546,1.0,1.0666666666666667,1,217.45887078530282,Male
7,1547,0.0,0.4,0,91.98858056150468,Male
1,1548,1.0,0.6666666666666666,1,156.22080852714032,Male
7,1549,1.0,0.6333333333333333,0,118.29896901448176,Male
1,1550,0.0,0.26666666666666666,1,157.0632391275276,Male
7,1551,1.0,0.7666666666666667,0,107.7617995571573,Male
1,1552,0.0,0.8333333333333334,1,174.80094070841247,Male
7,1553,0.0,0.7666666666666667,0,27.728688310373443,Male
1,1554,1.0,0.9,1,190.74526342620922,Male
7,1555,1.0,0.5666666666666667,0,68.50173743825523,Male
1,1556,1.0,0.3333333333333333,0,126.62504837711838,Male
7,1557,0.0,0.3,0,72.20290507022736,Male
7,1558,1.0,0.7333333333333333,0,116.41690266078503,Male
1,1559,0.0,0.7666666666666667,1,142.36415838649805,Male
7,1560,0.0,1.1333333333333333,1,185.76459367874827,Male
1,1561,1.0,0.9333333333333333,1,218.4964817204925,Male
1,1562,1.0,0.6666666666666666,0,103.83000751748276,Male
7,1563,1.0,0.6333333333333333,0,123.42856496081774,Male
1,1564,0.0,0.7,1,141.0058883770959,Male
7,1565,1.0,1.2333333333333334,1,214.58618926590444,Male
1,1566,1.0,0.5,1,143.47591325531388,Male
7,1567,1.0,0.8,0,102.44863539537124,Male
1,1568,1.0,0.6666666666666666,1,156.0189810619326,Male
7,1569,0.0,0.6666666666666666,0,113.08095051570741,Male
7,1570,1.0,0.6,0,101.75641912777031,Male
1,1571,0.0,0.6666666666666666,0,111.8777514613553,Male
1,1572,1.0,0.6,1,151.94448932013012,Male
7,1573,0.0,0.6666666666666666,0,97.42923102100399,Male
1,1574,1.0,0.9666666666666667,1,200.06110820839854,Male
7,1575,0.0,0.3,0,111.82801807392674,Male
1,1576,1.0,0.8,1,143.88718003887954,Male
7,1577,0.0,0.7333333333333333,0,125.07660391873468,Male
1,1578,0.0,1.0333333333333334,1,172.81562014500446,Male
7,1579,1.0,1.2,1,205.8630873322504,Male
1,1580,1.0,0.6666666666666666,1,180.9719376291401,Male
7,1581,0.0,0.7,1,158.31773617476668,Male
1,1582,0.0,1.0666666666666667,1,186.7173547945742,Male
7,1583,1.0,1.2333333333333334,1,272.0757932716538,Male
1,1584,0.0,0.6333333333333333,1,154.76974872958118,Male
7,1585,0.0,0.8666666666666667,1,137.88004214716918,Male
7,1586,1.0,0.6333333333333333,0,50.99064201149082,Male
1,1587,1.0,0.6666666666666666,1,141.00523336551757,Male
7,1588,0.0,0.8,1,142.25622225847482,Male
1,1589,1.0,1.2333333333333334,1,226.17358200560022,Male
7,1590,0.0,0.4666666666666667,0,92.60460769880808,Male
1,1591,1.0,0.4666666666666667,0,123.91960838585474,Male
7,1592,1.0,0.3333333333333333,0,107.77851182420238,Male
1,1593,1.0,0.3333333333333333,0,125.880556748014,Male
7,1594,1.0,0.4,0,69.88943583411046,Male
1,1595,1.0,0.3,1,155.3725743654053,Male
7,1596,0.0,0.36666666666666664,0,76.47642400638848,Male
1,1597,0.0,0.6666666666666666,1,165.63136769793576,Male
7,1598,0.0,1.0333333333333334,1,155.68083655694437,Male
7,1599,1.0,0.5333333333333333,0,84.78499016389463,Male
1,1600,0.0,0.7333333333333333,0,111.84348447571668,Male
7,1601,1.0,1.2333333333333334,1,195.69010434940745,Male
1,1602,0.0,0.3,1,139.94775633882105,Male
7,1603,1.0,0.7,0,100.7390018860992,Male
1,1604,1.0,0.6333333333333333,1,141.92262769130085,Male
7,1605,0.0,0.8333333333333334,1,145.04880234330824,Male
1,1606,1.0,0.8,1,190.54787955192208,Male
1,1607,1.0,0.5,0,101.64942746552022,Male
7,1608,0.0,0.7333333333333333,1,137.2502053996853,Male
7,1609,1.0,0.6333333333333333,0,80.20511107384402,Male
1,1610,0.0,0.7333333333333333,0,111.6346957371363,Male
7,1611,1.0,1.3666666666666667,1,245.78641847126192,Male
1,1612,1.0,0.36666666666666664,1,167.6464171334087,Male
7,1613,1.0,0.8333333333333334,1,148.00742764848212,Male
1,1614,0.0,0.4666666666666667,1,146.08376048667796,Male
7,1615,1.0,0.5666666666666667,0,97.39515544068176,Male
7,1616,1.0,0.9666666666666667,1,166.04681957590856,Male
1,1617,0.0,0.7,1,164.05325890795052,Male
7,1618,1.0,0.7333333333333333,0,51.85279930832901,Male
1,1619,0.0,0.9333333333333333,1,158.12363966860505,Male
1,1620,1.0,0.5666666666666667,1,141.35665248851632,Male
7,1621,1.0,0.6333333333333333,0,69.25629974965304,Male
1,1622,0.0,0.8666666666666667,1,141.00523336551757,Male
7,1623,1.0,0.7666666666666667,0,101.55075158104422,Male
7,1624,1.0,0.7,0,85.38917857290255,Male
1,1625,1.0,0.7666666666666667,1,149.21980256022124,Male
7,1626,1.0,0.6666666666666666,1,143.2198854187041,Male
1,1627,0.0,0.7,0,123.61944778426835,Male
7,1628,1.0,0.7666666666666667,0,133.37872845602396,Male
1,1629,0.0,0.36666666666666664,1,171.24009634725945,Male
7,1630,0.0,0.5,0,122.23116309826574,Male
1,1631,1.0,0.6333333333333333,1,156.07322577109773,Male
7,1632,0.0,0.6666666666666666,0,60.42077999560995,Male
7,1633,1.0,0.6333333333333333,0,38.298432968192984,Male
1,1634,0.0,0.7666666666666667,1,202.61813897198914,Male
7,1635,1.0,0.5,0,124.34052507966285,Male
18,1636,1.0,1.1333333333333333,1,228.89253753143362,Male
1,1637,0.0,1.2333333333333334,0,87.51581258814359,Male
18,1638,1.0,0.16666666666666666,0,117.87111311580827,Male
1,1639,1.0,0.8,1,155.07624623746278,Male
18,1640,0.0,0.8333333333333334,0,67.61525588464936,Male
18,1641,1.0,0.7666666666666667,0,75.05271185571847,Male
1,1642,0.0,0.8666666666666667,0,94.62157394512487,Male
18,1643,0.0,1.1666666666666667,1,168.6666337663642,Male
1,1644,0.0,1.3333333333333333,1,142.19226287859766,Male
18,1645,0.0,1.2333333333333334,1,229.50132803644368,Male
1,1646,1.0,1.0666666666666667,0,118.6756948514284,Male
18,1647,0.0,0.36666666666666664,1,136.73044206217023,Male
18,1648,1.0,1.2333333333333334,1,185.9870866120308,Male
1,1649,0.0,0.4666666666666667,0,120.87363419459417,Male
18,1650,1.0,0.8666666666666667,0,71.73510281702852,Male
1,1651,0.0,0.9333333333333333,0,110.74347138675274,Male
18,1652,1.0,1.5,1,228.2999610015761,Male
1,1653,0.0,0.4666666666666667,0,128.88916855751216,Male
18,1654,1.0,0.7,1,145.74210853395763,Male
1,1655,0.0,0.8333333333333334,0,130.1994999603853,Male
18,1656,0.0,1.0666666666666667,1,199.4940640532306,Male
1,1657,1.0,0.9333333333333333,1,179.25420963779956,Male
18,1658,0.0,0.36666666666666664,0,125.35850409344799,Male
1,1659,1.0,0.8666666666666667,0,89.12606643185407,Male
18,1660,0.0,0.5,0,95.7741794746923,Male
18,1661,0.0,0.7666666666666667,0,59.35274626829573,Male
1,1662,1.0,0.9,1,158.78375429890636,Male
18,1663,0.0,0.6,0,120.849636858214,Male
1,1664,0.0,0.9,0,127.33497310874444,Male
18,1665,1.0,0.9666666666666667,1,178.79739913523457,Male
1,1666,0.0,0.6333333333333333,0,97.64462706867013,Male
18,1667,0.0,1.0,0,125.10274588226432,Male
1,1668,1.0,1.4,1,133.8913192104092,Male
18,1669,0.0,0.4666666666666667,0,117.41725990790327,Male
1,1670,1.0,1.0,0,103.57778868178418,Male
18,1671,1.0,0.7,1,135.88331061695328,Male
1,1672,0.0,0.8666666666666667,1,161.50906468839207,Male
18,1673,1.0,1.1666666666666667,1,223.28144990354926,Male
1,1674,0.0,0.36666666666666664,0,100.6793162077555,Male
18,1675,1.0,0.7,0,126.83093978340501,Male
1,1676,0.0,0.9333333333333333,0,71.36511788364996,Male
18,1677,1.0,1.3666666666666667,1,261.10255791072143,Male
1,1678,0.0,1.1333333333333333,0,99.18497191550587,Male
18,1679,0.0,1.1333333333333333,1,196.80356154395778,Male
1,1680,1.0,1.3666666666666667,1,171.43192756738253,Male
18,1681,0.0,0.4,1,158.80494494673727,Male
1,1682,0.0,1.0333333333333334,0,114.4894181470592,Male
18,1683,0.0,0.9666666666666667,1,187.86344507506743,Male
1,1684,1.0,1.2,1,164.04501083226623,Male
18,1685,0.0,0.5333333333333333,0,110.36080560125686,Male
1,1686,1.0,0.8666666666666667,0,96.41182461443275,Male
18,1687,1.0,0.5,0,108.9777657596727,Male
18,1688,1.0,1.0666666666666667,1,169.9318788577017,Male
1,1689,1.0,0.5,0,70.36598347318655,Male
18,1690,1.0,0.8,0,77.15187055344997,Male
1,1691,1.0,0.8,0,64.38313049387196,Male
1,1692,0.0,0.6333333333333333,0,76.76451767694049,Male
18,1693,1.0,1.4666666666666666,1,220.6624664996319,Male
1,1694,0.0,1.1666666666666667,0,123.01894452632871,Male
18,1695,0.0,0.13333333333333333,1,140.41331224143195,Male
1,1696,1.0,1.0,0,115.77451864773333,Male
1,1697,1.0,0.8,0,130.6782368382471,Male
18,1698,0.0,0.3,1,134.5038298371488,Male
1,1699,1.0,1.0333333333333334,0,102.95899947993472,Male
18,1700,1.0,0.9,1,154.55585170709662,Male
18,1701,0.0,0.7333333333333333,0,46.39128425641413,Male
1,1702,0.0,1.2,1,178.70074906907442,Male
18,1703,1.0,1.1,1,140.38191397447198,Male
1,1704,0.0,0.4666666666666667,0,121.22877908375892,Male
18,1705,1.0,1.0,1,156.18547202759862,Male
1,1706,0.0,0.43333333333333335,0,115.58643822010167,Male
18,1707,0.0,0.8,1,156.02192164639774,Male
1,1708,0.0,1.2333333333333334,1,162.69867197231318,Male
18,1709,1.0,1.0333333333333334,1,173.72763385932242,Male
18,1710,1.0,0.8666666666666667,0,128.29167944422875,Male
1,1711,1.0,0.9,0,111.36568510012907,Male
18,1712,1.0,0.7666666666666667,1,214.7217124787807,Male
1,1713,1.0,0.8,0,122.62452385949074,Male
18,1714,0.0,0.9666666666666667,0,124.79091572603772,Male
1,1715,1.0,1.0666666666666667,0,130.725853528997,Male
18,1716,0.0,0.4,0,102.73298986368688,Male
1,1717,1.0,0.9666666666666667,0,106.03709223823085,Male
18,1718,0.0,1.0333333333333334,0,100.64102489351006,Male
1,1719,1.0,1.3666666666666667,1,148.51319589233626,Male
18,1720,0.0,0.6,1,202.68152125585354,Male
1,1721,1.0,1.0666666666666667,1,161.2301470090424,Male
18,1722,0.0,1.0,1,192.6917207585745,Male
1,1723,1.0,1.8,1,150.77674336393952,Male
18,1724,0.0,0.43333333333333335,0,127.55599021200578,Male
1,1725,0.0,1.1333333333333333,1,182.67742172226335,Male
18,1726,1.0,2.066666666666667,1,221.8365239690294,Male
1,1727,0.0,0.5,0,121.32630391810129,Male
18,1728,1.0,1.2666666666666666,1,168.00701134572128,Male
1,1729,0.0,0.3333333333333333,0,99.70868009542997,Male
18,1730,1.0,0.7,0,78.43156683041865,Male
18,1731,1.0,0.7666666666666667,0,64.61460789602697,Male
1,1732,0.0,0.9,1,137.360544089521,Male
18,1733,1.0,0.9666666666666667,1,178.84037184549462,Male
1,1734,1.0,0.6666666666666666,0,131.91196956731994,Male
1,1735,1.0,0.6333333333333333,0,80.59932812279212,Male
18,1736,0.0,0.7333333333333333,1,137.8611578826241,Male
18,1737,1.0,0.5333333333333333,1,144.42113536452698,Male
1,1738,0.0,0.9666666666666667,1,134.4308808354625,Male
18,1739,1.0,1.1666666666666667,1,253.31067814168216,Male
1,1740,1.0,0.6333333333333333,0,118.8731412963188,Male
18,1741,0.0,0.6,0,127.88800977532685,Male
1,1742,1.0,0.6666666666666666,0,101.8337050411277,Male
18,1743,0.0,1.1,1,171.26814355788528,Male
1,1744,1.0,1.1333333333333333,1,172.4739994141075,Male
18,1745,0.0,0.6666666666666666,0,102.77533791886843,Male
1,1746,0.0,0.9333333333333333,0,95.92403742693409,Male
18,1747,0.0,1.0,1,153.07937534240085,Male
1,1748,1.0,1.2333333333333334,1,146.0118143525834,Male
18,1749,0.0,0.43333333333333335,0,125.69966511048479,Male
1,1750,1.0,1.0333333333333334,0,97.27398280058519,Male
18,1751,0.0,1.0,0,36.3659954354631,Male
1,1752,1.0,1.1666666666666667,1,145.73103966257196,Male
18,1753,0.0,0.43333333333333335,1,161.11571095832798,Male
1,1754,0.0,1.0,0,118.07670498307023,Male
18,1755,0.0,1.2666666666666666,1,202.25050785782136,Male
1,1756,0.0,1.0666666666666667,1,187.54559424012456,Male
18,1757,1.0,1.4333333333333333,1,231.8365206475366,Male
1,1758,1.0,0.9,1,148.12017413309792,Male
18,1759,0.0,1.0333333333333334,0,110.71371021094386,Male
1,1760,1.0,1.8333333333333333,1,170.15719400252723,Male
18,1761,1.0,0.8,0,93.49260434125404,Male
1,1762,1.0,0.9333333333333333,0,129.84774649128093,Male
18,1763,1.0,0.9,1,156.9042052875156,Male
1,1764,0.0,0.4666666666666667,0,69.98906260407962,Male
18,1765,1.0,0.8666666666666667,0,103.20751698673928,Male
18,1766,0.0,0.7333333333333333,0,103.43674392517205,Male
1,1767,1.0,1.4666666666666666,1,288.7814709500777,Male
18,1768,1.0,0.7666666666666667,1,139.2786127138963,Male
1,1769,0.0,0.8333333333333334,0,108.62764801365181,Male
18,1770,1.0,1.4,1,181.74660871832768,Male
1,1771,0.0,0.43333333333333335,0,100.05064499214814,Male
18,1772,1.0,1.4333333333333333,0,132.86452744352866,Male
1,1773,0.0,0.13333333333333333,1,138.59220235523293,Male
18,1774,1.0,0.9333333333333333,0,112.3674701064091,Male
18,1775,0.0,0.8,0,61.51233980402955,Male
1,1776,1.0,0.7666666666666667,1,170.18045265784423,Male
18,1777,0.0,0.4,0,122.99012338163045,Male
1,1778,1.0,0.7666666666666667,0,86.40328898506242,Male
18,1779,0.0,0.26666666666666666,0,105.24199759640692,Male
18,1780,1.0,0.7,0,81.03401680466173,Male
1,1781,0.0,0.7666666666666667,0,96.24828886352223,Male
18,1782,0.0,1.1,1,164.33285358044733,Male
18,1783,1.0,0.5666666666666667,1,133.6409659134563,Male
1,1784,1.0,0.8666666666666667,0,99.90891108355756,Male
18,1785,0.0,0.9666666666666667,0,101.90029457193087,Male
1,1786,0.0,1.3666666666666667,1,266.46275810864574,Male
18,1787,1.0,0.8666666666666667,0,127.79031481831497,Male
1,1788,0.0,0.5333333333333333,1,158.80494494673727,Male
18,1789,1.0,1.0,0,106.2543788412148,Male
18,1790,0.0,1.0666666666666667,1,180.29215956867282,Male
1,1791,0.0,0.8333333333333334,0,120.82492065100634,Male
18,1792,1.0,1.6333333333333333,1,138.09363277936197,Male
1,1793,1.0,0.8,0,116.93548998891418,Male
18,1794,0.0,1.4666666666666666,0,108.59371258680518,Male
1,1795,1.0,0.1,0,92.51626257209686,Male
18,1796,1.0,0.9333333333333333,0,129.91771214884255,Male
1,1797,1.0,0.5666666666666667,0,67.13027583236729,Male
18,1798,0.0,0.9,0,32.31058096094286,Male
18,1799,1.0,0.8333333333333334,0,83.02207271250279,Male
1,1800,0.0,0.6666666666666666,0,79.62678322772197,Male
18,1801,0.0,1.3666666666666667,1,167.92128149205203,Male
1,1802,1.0,1.6666666666666667,1,297.21516516631675,Male
18,1803,1.0,0.9333333333333333,1,144.0802509280094,Male
1,1804,0.0,0.8666666666666667,0,71.17773410190155,Male
18,1805,1.0,1.2666666666666666,1,164.48869834073273,Male
1,1806,0.0,0.5,0,132.5552649071694,Male
18,1807,1.0,1.2,0,107.64627682163665,Male
1,1808,1.0,0.8666666666666667,1,180.57069386538012,Male
18,1809,1.0,0.9666666666666667,1,134.47254095192807,Male
1,1810,0.0,0.8666666666666667,1,163.288208062781,Male
18,1811,1.0,2.1666666666666665,0,130.2132519517882,Male
1,1812,0.0,0.5,0,119.14344244364933,Male
18,1813,1.0,0.6,0,94.09290694496312,Male
1,1814,0.0,0.43333333333333335,0,107.47826370321627,Male
18,1815,0.0,0.8,0,73.90846733315969,Male
1,1816,0.0,1.2,1,192.34438798773706,Male
18,1817,1.0,1.0666666666666667,0,115.86623025309521,Male
18,1818,0.0,0.5666666666666667,0,83.78721228108476,Male
18,1819,1.0,0.7666666666666667,0,131.9125041126447,Male
1,1820,1.0,0.8666666666666667,0,97.21516976377443,Male
18,1821,0.0,0.9333333333333333,0,121.26028324410063,Male
1,1822,0.0,1.2333333333333334,1,193.43478150363816,Male
18,1823,0.0,0.4666666666666667,0,114.2122661337378,Male
1,1824,0.0,1.0,0,120.83733981342536,Male
18,1825,1.0,1.0666666666666667,1,164.8637601160353,Male
1,1826,0.0,0.43333333333333335,0,88.51407251058566,Male
1,1827,0.0,0.6666666666666666,0,103.35635423124013,Male
18,1828,1.0,0.5,0,101.98780755229808,Male
1,1829,0.0,0.6666666666666666,0,55.40395070372343,Male
18,1830,1.0,1.0,0,132.16994944330773,Male
1,1831,0.0,0.5,0,125.18576360445229,Male
18,1832,1.0,0.7333333333333333,0,128.31379174279508,Male
1,1833,0.0,0.8,1,163.77759815355702,Male
18,1834,1.0,1.2,0,111.49289382336934,Male
1,1835,0.0,0.43333333333333335,0,124.1937405387646,Male
18,1836,1.0,1.0,0,96.28237783501437,Male
18,1837,0.0,0.9,0,95.98527736658338,Male
1,1838,0.0,1.0333333333333334,1,205.67895058260174,Male
18,1839,1.0,0.9,1,196.79463315994607,Male
1,1840,0.0,0.5,0,109.69735965060372,Male
18,1841,1.0,0.9666666666666667,0,107.29253603303546,Male
1,1842,0.0,0.4,1,164.4805229876237,Male
18,1843,0.0,0.9666666666666667,0,77.01030623833398,Male
1,1844,1.0,0.6333333333333333,0,114.62057898097825,Male
18,1845,0.0,0.6666666666666666,0,77.06323984587964,Male
1,1846,0.0,0.8333333333333334,1,145.55560211560856,Male
18,1847,1.0,1.3333333333333333,1,141.39848558761392,Male
1,1848,0.0,0.5666666666666667,1,153.17872504649063,Male
18,1849,0.0,1.0666666666666667,0,129.4680107071218,Male
1,1850,0.0,1.7666666666666666,1,272.1422718729833,Male
18,1851,1.0,0.9666666666666667,0,117.75751667054254,Male
1,1852,0.0,0.6333333333333333,1,138.2394527025712,Male
18,1853,1.0,1.1666666666666667,0,105.15923843145869,Male
1,1854,0.0,1.1,1,154.3969389008979,Male
18,1855,0.0,1.3333333333333333,1,179.009563191151,Male
1,1856,0.0,1.5,1,228.40249734779965,Male
18,1857,1.0,2.2666666666666666,1,173.19227454836465,Male
1,1858,1.0,0.3,1,137.7003987924823,Male
18,1859,1.0,1.0666666666666667,1,136.74439332128395,Male
1,1860,0.0,0.9666666666666667,1,148.28511919411915,Male
18,1861,1.0,1.7666666666666666,0,131.23357315435177,Male
1,1862,0.0,0.43333333333333335,0,105.76522749948964,Male
18,1863,1.0,0.8,0,65.88061167901377,Male
18,1864,1.0,0.9666666666666667,1,137.11438402932885,Male
1,1865,0.0,0.8666666666666667,1,162.7478218334519,Male
18,1866,0.0,1.1333333333333333,1,156.855656539517,Male
18,1867,1.0,0.7,0,84.85595881329394,Male
1,1868,0.0,0.7666666666666667,0,50.097887386964445,Male
18,1869,1.0,1.3333333333333333,1,150.91223925263654,Male
1,1870,1.0,0.6333333333333333,0,92.85419054354456,Male
18,1871,1.0,0.3,0,117.17816830540826,Male
1,1872,1.0,0.4,0,88.5790071522383,Male
18,1873,0.0,0.5,0,94.07316686507254,Male
1,1874,1.0,0.7333333333333333,0,76.71250446453887,Male
18,1875,0.0,1.0,1,134.5352989521089,Male
1,1876,1.0,1.0333333333333334,1,197.4968620021513,Male
18,1877,0.0,0.4,0,121.53634169962586,Male
1,1878,1.0,0.8333333333333334,0,79.14750524294794,Male
18,1879,0.0,0.9333333333333333,0,51.38373518724422,Male
1,1880,0.0,1.2333333333333334,1,193.48826938102036,Male
18,1881,1.0,1.5,1,134.99525364068504,Male
18,1882,1.0,0.9333333333333333,1,161.9138173747459,Male
1,1883,0.0,0.4666666666666667,0,112.97099717159058,Male
18,1884,1.0,0.7,0,47.69857738380239,Male
1,1885,1.0,0.5,0,117.00592309620278,Male
18,1886,0.0,0.4,0,66.67970795440989,Male
1,1887,1.0,0.6666666666666666,0,114.37796113251798,Male
18,1888,1.0,0.8666666666666667,0,128.201145953546,Male
1,1889,0.0,0.8666666666666667,1,134.07075675221714,Male
18,1890,1.0,2.2666666666666666,0,112.006724118573,Male
1,1891,0.0,0.36666666666666664,1,149.79113503962833,Male
18,1892,1.0,0.6,0,94.22290266957239,Male
1,1893,0.0,0.8333333333333334,1,136.93806359310761,Male
18,1894,1.0,1.1333333333333333,1,180.31576388723008,Male
1,1895,0.0,0.4,0,87.06853569908687,Male
18,1896,1.0,0.43333333333333335,0,119.7056243126213,Male
1,1897,1.0,0.43333333333333335,0,81.88723928738408,Male
18,1898,1.0,0.7,0,104.2114587452795,Male
1,1899,0.0,0.7666666666666667,1,151.24540565977495,Male
18,1900,0.0,1.1,1,168.3457264675737,Male
1,1901,1.0,0.6666666666666666,0,123.96497584087597,Male
18,1902,0.0,0.8333333333333334,1,157.72325945298027,Male
1,1903,1.0,1.7333333333333334,1,196.50153544910034,Male
18,1904,0.0,0.3333333333333333,0,107.96600333943161,Male
1,1905,1.0,1.1,1,139.57360027050453,Male
1,1906,1.0,0.6333333333333333,0,47.29661055182742,Male
18,1907,0.0,0.7666666666666667,1,135.05954725624673,Male
1,1908,1.0,1.3333333333333333,1,228.47258164603718,Male
18,1909,1.0,0.9,0,53.9192460610796,Male
1,1910,1.0,0.6,0,43.70114336387619,Male
18,1911,1.0,0.6666666666666666,0,89.17637865673275,Male
1,1912,0.0,0.3333333333333333,0,128.66688877349173,Male
18,1913,1.0,0.7666666666666667,0,90.18769528854584,Male
1,1914,0.0,0.4,1,155.56931933539303,Male
18,1915,1.0,0.8,0,103.38765665637548,Male
1,1916,0.0,0.8333333333333334,1,160.1079947515269,Male
18,1917,1.0,1.6,1,177.55918703144454,Male
1,1918,1.0,0.26666666666666666,0,107.92044621770326,Male
18,1919,1.0,0.8333333333333334,0,69.5067981438499,Male
1,1920,0.0,0.8,0,74.39228089088212,Male
18,1921,1.0,1.1,0,129.56456354945257,Male
1,1922,1.0,0.5,1,181.6645669621834,Male
18,1923,0.0,1.1333333333333333,0,102.35138025384126,Male
1,1924,1.0,1.0,1,202.63687225856847,Male
1,1925,0.0,0.8666666666666667,0,69.33945576578924,Male
18,1926,1.0,1.2,1,151.59117388727486,Male
1,1927,0.0,0.6,1,148.02166892077418,Male
18,1928,0.0,0.6333333333333333,1,156.64873633635167,Male
1,1929,1.0,0.9333333333333333,0,129.77297943657325,Male
18,1930,1.0,0.7666666666666667,0,65.22228078385068,Male
18,1931,1.0,0.7,0,80.62464037324082,Male
1,1932,0.0,0.4,0,103.93589012971773,Male
1,1933,1.0,1.0,1,180.70267407187376,Male
18,1934,0.0,0.8,0,107.7425934220574,Male
1,1935,1.0,1.4333333333333333,0,130.9344589411654,Male
18,1936,0.0,0.5333333333333333,0,111.57225225980149,Male
1,1937,1.0,1.1,0,118.57321185723939,Male
18,1938,0.0,0.9333333333333333,1,167.8826477686536,Male
1,1939,1.0,1.8,1,159.6014807897156,Male
1,1940,0.0,0.9333333333333333,0,78.33532765316532,Male
18,1941,1.0,0.9333333333333333,1,214.50913175522155,Male
18,1942,1.0,0.8,0,66.53710809947248,Male
1,1943,1.0,0.8666666666666667,0,62.29346855697496,Male
18,1944,1.0,0.8333333333333334,0,118.77426551708014,Male
1,1945,1.0,1.0,1,151.01618045138358,Male
1,1946,1.0,0.8666666666666667,0,62.67128619914869,Male
18,1947,0.0,0.9333333333333333,0,18.85110638155649,Male
1,1948,1.0,1.6,1,158.4003733196841,Male
18,1949,0.0,0.36666666666666664,1,150.05617536183783,Male
1,1950,0.0,1.0333333333333334,0,115.90345047779121,Male
18,1951,1.0,0.6666666666666666,1,134.20744937289552,Male
1,1952,0.0,0.36666666666666664,0,95.0972146033989,Male
18,1953,1.0,0.7333333333333333,0,98.59648434261175,Male
1,1954,1.0,0.8,0,69.56831373696373,Male
18,1955,0.0,0.9,1,162.99448748440102,Male
